loggingTime(txt),loggingSample(N),accelerometerTimestamp_sinceReboot(s),accelerometerAccelerationX(G),accelerometerAccelerationY(G),accelerometerAccelerationZ(G),gyroTimestamp_sinceReboot(s),gyroRotationX(rad/s),gyroRotationY(rad/s),gyroRotationZ(rad/s),magnetometerTimestamp_sinceReboot(s),magnetometerX(µT),magnetometerY(µT),magnetometerZ(µT)
2024-11-13 15:02:42.499 +0100,1,69241.25235875,-0.0093841552734375,-0.0267333984375,-1.001220703125,69241.24365475001,0.003550260094925761,-0.002970756264403462,-0.001915345434099436,69241.24796975001,323.2360229492188,-217.9823913574219,-159.1264495849609
2024-11-13 15:02:42.501 +0100,2,69241.26230675001,-0.008575439453125,-0.0269622802734375,-1.001312255859375,69241.25360175001,0.0007640608819201589,-0.001265001483261585,-0.0006119944155216217,69241.25825375,323.1477661132812,-218.0512237548828,-159.0180511474609
2024-11-13 15:02:42.501 +0100,3,69241.27225475,-0.0084075927734375,-0.0282440185546875,-1.003860473632812,69241.26354975,0.000177100213477388,-0.0008500810363329947,-0.001537709147669375,69241.26853775,323.381591796875,-217.9129943847656,-158.9362335205078
2024-11-13 15:02:42.511 +0100,4,69241.28220175,-0.0074920654296875,-0.02667236328125,-0.9999847412109375,69241.27349775001,0.001714543090201914,-0.003061303636059165,-0.001317998394370079,69241.27882075,323.0935668945312,-218.0864562988281,-158.9502258300781
2024-11-13 15:02:42.518 +0100,5,69241.29214975001,-0.009063720703125,-0.0256195068359375,-0.99664306640625,69241.28344475001,-0.0002577939885668457,-0.001903361175209284,-0.0006647250265814364,69241.28910575001,323.22216796875,-218.0847015380859,-158.9958648681641
2024-11-13 15:02:42.528 +0100,6,69241.30209675001,-0.0086517333984375,-0.0256195068359375,-0.99835205078125,69241.30333975001,-0.0001557949290145189,-0.001271659391932189,0.0008404936525039375,69241.29938975,323.1651611328125,-217.8662719726562,-158.8768463134766
2024-11-13 15:02:42.538 +0100,7,69241.31204475001,-0.0077972412109375,-0.026580810546875,-0.997344970703125,69241.30333975001,-0.0001557949290145189,-0.001271659391932189,0.0008404936525039375,69241.30967375,323.3128051757812,-217.8620758056641,-159.1459655761719
2024-11-13 15:02:42.550 +0100,8,69241.32199275,-0.0070343017578125,-0.02813720703125,-0.99713134765625,69241.31328775,-0.001097222324460745,-0.00321896281093359,0.002426672261208296,69241.31995675,323.2476806640625,-217.9402770996094,-158.9307556152344
2024-11-13 15:02:42.557 +0100,9,69241.33193975,-0.0070037841796875,-0.0282745361328125,-0.9990997314453125,69241.32323575001,0.001293497276492417,-0.002757703186944127,-0.001235706731677055,69241.33023975001,323.4484252929688,-217.8292694091797,-158.9646759033203
2024-11-13 15:02:42.567 +0100,10,69241.34188775001,-0.0078277587890625,-0.027099609375,-1.002899169921875,69241.33318275001,0.0004178499802947044,-0.001633316627703607,-0.001810416928492486,69241.34052275,323.22021484375,-217.9333801269531,-158.8594360351562
2024-11-13 15:02:42.577 +0100,11,69241.35183475001,-0.00640869140625,-0.0275421142578125,-1.001541137695312,69241.34313075,0.001090298173949122,-0.00370126124471426,-6.657902849838138e-05,69241.35080675001,323.5545349121094,-217.8750305175781,-159.1544189453125
2024-11-13 15:02:42.587 +0100,12,69241.36178275,-0.005767822265625,-0.026336669921875,-1.000167846679688,69241.35307775,0.001142762368544936,-0.00222400575876236,-0.0003262372338213027,69241.36108975,323.1486511230469,-217.8825378417969,-158.991943359375
2024-11-13 15:02:42.597 +0100,13,69241.37173075,-0.00726318359375,-0.026153564453125,-0.9993896484375,69241.36302575,0.001625859877094626,-0.001193362521007657,0.0009419600828550756,69241.37137375001,323.4085998535156,-217.8886871337891,-158.7122802734375
2024-11-13 15:02:42.615 +0100,14,69241.38167775,-0.007476806640625,-0.0253143310546875,-1.001251220703125,69241.37297375001,0.002489789389073849,-0.0008910936885513365,-0.001229847781360149,69241.38165575001,323.1194763183594,-217.8182220458984,-158.8687286376953
2024-11-13 15:02:42.617 +0100,15,69241.39162575001,-0.0059661865234375,-0.0252532958984375,-0.9984588623046875,69241.38292075001,-0.001452754368074238,-0.003350789193063974,6.231796578504145e-05,69241.39193875001,323.3609008789062,-217.8506774902344,-159.0032501220703
2024-11-13 15:02:42.627 +0100,16,69241.40157375,-0.0076904296875,-0.0272064208984375,-0.9972381591796875,69241.39286875,0.0009131979313679039,-0.001984054921194911,-0.001741440966725349,69241.40222175,323.0582275390625,-217.9099273681641,-159.0214233398438
2024-11-13 15:02:42.637 +0100,17,69241.41152075,-0.0069122314453125,-0.02825927734375,-0.9979705810546875,69241.40281675001,0.004172907210886478,-0.0009432916413061321,-0.001806422136723995,69241.41250475,323.3591918945312,-217.9403839111328,-159.1602478027344
2024-11-13 15:02:42.647 +0100,18,69241.42146875001,-0.007354736328125,-0.028076171875,-0.9991912841796875,69241.41276375001,0.001144094043411314,0.0005214469274505973,0.0004327636852394789,69241.42278775001,323.0380249023438,-218.0146331787109,-158.9438934326172
2024-11-13 15:02:42.657 +0100,19,69241.43141575,-0.00665283203125,-0.0270843505859375,-1.000747680664062,69241.42271175,0.001657817745581269,-0.002359827049076557,-0.002514290390536189,69241.43307075,323.403076171875,-217.9270629882812,-159.0365753173828
2024-11-13 15:02:42.671 +0100,20,69241.44136375001,-0.007568359375,-0.0267333984375,-1.00067138671875,69241.43265875001,0.0007105313707143068,-0.0005411543534137309,-0.001403219532221556,69241.44335275001,322.9797973632812,-218.0000457763672,-159.2109222412109
2024-11-13 15:02:42.677 +0100,21,69241.45131175,-0.0076751708984375,-0.0280303955078125,-0.999114990234375,69241.44260675,0.0006524744676426053,-0.0007411577389575541,-0.001533714472316206,69241.45363675001,323.3750610351562,-217.8462371826172,-158.9146270751953
2024-11-13 15:02:42.687 +0100,22,69241.46125875,-0.008392333984375,-0.0276031494140625,-0.998382568359375,69241.45255475001,0.0002972087822854519,-0.0008239820599555969,0.0002972087822854519,69241.46391975001,323.2000122070312,-217.8774108886719,-158.970458984375
2024-11-13 15:02:42.697 +0100,23,69241.47120675001,-0.0070037841796875,-0.026763916015625,-1.0001220703125,69241.46250175001,-0.0003462109307292849,-0.002069276059046388,-0.0008428904693573713,69241.47420275,323.2973937988281,-217.8400268554688,-159.1996154785156
2024-11-13 15:02:42.707 +0100,24,69241.48115475,-0.007781982421875,-0.027191162109375,-1.001388549804688,69241.47244975,0.001522262813523412,-0.003977164626121521,-0.001335841603577137,69241.47420275,323.2973937988281,-217.8400268554688,-159.1996154785156
2024-11-13 15:02:42.717 +0100,25,69241.49110175,-0.0077056884765625,-0.02642822265625,-1.000320434570312,69241.48239775001,0.0004644552827812731,-0.002573945093899965,4.580636959872209e-05,69241.48448575,323.1809692382812,-217.9830017089844,-158.8719329833984
2024-11-13 15:02:42.732 +0100,26,69241.50104975,-0.0089111328125,-0.0264434814453125,-0.999176025390625,69241.49234475,0.001170192961581051,-0.0010072075529024,-2.396845047769602e-06,69241.49476875001,323.3206176757812,-217.6908874511719,-158.887451171875
2024-11-13 15:02:42.736 +0100,27,69241.51099675,-0.008056640625,-0.0261688232421875,-0.9994964599609375,69241.50229275001,0.00114968663547188,-0.001953162252902985,-0.0003914846747647971,69241.50505175001,323.2152709960938,-218.1420440673828,-159.2286529541016
2024-11-13 15:02:42.746 +0100,28,69241.52094475001,-0.007049560546875,-0.0278167724609375,-0.9986572265625,69241.51223975001,0.001886849640868604,-0.003608050523325801,-0.002857305575162172,69241.51533475,323.289306640625,-217.8388671875,-159.0635528564453
2024-11-13 15:02:42.756 +0100,29,69241.53089275,-0.00811767578125,-0.0272216796875,-0.998779296875,69241.52218775,-0.0004492752777878195,-0.002741724252700806,-0.001572862965986133,69241.52561775,323.2366943359375,-217.9931335449219,-158.9749603271484
2024-11-13 15:02:42.766 +0100,30,69241.54083975,-0.00775146484375,-0.0269622802734375,-0.998077392578125,69241.53213575001,0.003647731617093086,-0.003289270214736462,-0.004583566449582577,69241.53590175,323.2749633789062,-217.7680206298828,-159.0992279052734
2024-11-13 15:02:42.776 +0100,31,69241.55078775001,-0.0069427490234375,-0.02825927734375,-1.000701904296875,69241.54208275001,-3.302319601061754e-05,-0.004407797940075397,0.0009403621661476791,69241.54618575,323.2092895507812,-217.8898620605469,-159.0367431640625
2024-11-13 15:02:42.786 +0100,32,69241.56073575,-0.0074310302734375,-0.0272369384765625,-1.001968383789062,69241.55203075,0.0008964200387708843,-0.002673813607543707,-0.0007294398383237422,69241.55646875,323.180908203125,-217.8757171630859,-159.0492858886719
2024-11-13 15:02:42.797 +0100,33,69241.57068275001,-0.0072021484375,-0.02667236328125,-0.999603271484375,69241.56197875,0.0007267766632139683,-0.005478921346366405,-0.001192563562653959,69241.56675075,323.0937194824219,-217.9992218017578,-159.1139526367188
2024-11-13 15:02:42.806 +0100,34,69241.58063075,-0.008209228515625,-0.02685546875,-0.9987030029296875,69241.57192575,0.003410710487514734,-0.003330815583467484,-0.001631985069252551,69241.57703475001,323.2264099121094,-217.8395843505859,-159.1669464111328
2024-11-13 15:02:42.816 +0100,35,69241.59057775,-0.008056640625,-0.0267791748046875,-1.000640869140625,69241.58187375001,0.004765992984175682,-0.003780623432248831,-0.00182160222902894,69241.58731875001,323.3978576660156,-217.8321075439453,-159.1129150390625
2024-11-13 15:02:42.826 +0100,36,69241.60052575001,-0.0070343017578125,-0.028106689453125,-1.000137329101562,69241.59182075001,-0.0002918824611697346,-0.002079928759485483,-0.000874582096002996,69241.59760075,323.2785034179688,-217.9709625244141,-158.99169921875
2024-11-13 15:02:42.836 +0100,37,69241.61047375,-0.006103515625,-0.0263824462890625,-0.99908447265625,69241.60176875,0.002443716628476977,-0.002649578964337707,-0.0006138586322776973,69241.60788475,323.5234069824219,-217.8491363525391,-159.02490234375
2024-11-13 15:02:42.851 +0100,38,69241.62042075,-0.0067596435546875,-0.0266571044921875,-0.99688720703125,69241.61171675001,0.001996838254854083,-0.003087668912485242,-0.0006612628931179643,69241.61816775,323.2437744140625,-217.8305969238281,-159.1286926269531
2024-11-13 15:02:42.856 +0100,39,69241.63036875,-0.0077362060546875,-0.0266876220703125,-0.9981842041015625,69241.62166375,0.0005944175645709038,-0.002658101031556726,-0.001581118674948812,69241.62844975,323.4111938476562,-217.9419097900391,-159.0523986816406
2024-11-13 15:02:42.866 +0100,40,69241.64031675001,-0.0064697265625,-0.028106689453125,-1.001388549804688,69241.63161175001,0.001989913871511817,-0.00112944666761905,-7.962851668708026e-05,69241.63873375001,323.3219604492188,-217.8805389404297,-158.8752288818359
2024-11-13 15:02:42.876 +0100,41,69241.65026375001,-0.00726318359375,-0.0277252197265625,-1.000457763671875,69241.64155975,0.0006045375484973192,-0.0006897587445564568,-0.002060221508145332,69241.64901675,323.381591796875,-217.9133911132812,-159.1753540039062
2024-11-13 15:02:42.886 +0100,42,69241.66021175,-0.006011962890625,-0.0284271240234375,-0.9998016357421875,69241.65150675,-0.0003616572648752481,-0.001666872529312968,0.0005328985280357301,69241.65929975,323.2498474121094,-217.8676300048828,-159.1387481689453
2024-11-13 15:02:42.896 +0100,43,69241.67015875,-0.0073699951171875,-0.0280303955078125,-1.001129150390625,69241.66145475001,-0.0001848233805503696,-0.003528155852109194,9.321063771494664e-06,69241.66958175,323.3377075195312,-218.0327911376953,-158.9290466308594
2024-11-13 15:02:42.906 +0100,44,69241.68010675001,-0.007171630859375,-0.0267333984375,-1.000701904296875,69241.67140175001,0.002454102970659733,-0.00247993553057313,-0.001543568097986281,69241.67986375,323.3050537109375,-217.8725128173828,-158.9598693847656
2024-11-13 15:02:42.916 +0100,45,69241.690055,-0.0095367431640625,-0.0267791748046875,-0.9985504150390625,69241.69129800001,0.001997370738536119,-0.00241655227728188,0.0008964200387708843,69241.690147,323.2945861816406,-217.8785400390625,-158.9864349365234
2024-11-13 15:02:42.926 +0100,46,69241.700002,-0.0084381103515625,-0.0272674560546875,-0.9971771240234375,69241.69129800001,0.001997370738536119,-0.00241655227728188,0.0008964200387708843,69241.700431,323.2113647460938,-217.8922119140625,-159.19091796875
2024-11-13 15:02:42.935 +0100,47,69241.70995,-0.0073394775390625,-0.02716064453125,-0.9979095458984375,69241.701245,0.001043959171511233,-0.001090564415790141,-0.0006687197601422668,69241.710714,323.3419189453125,-217.8142700195312,-159.1213531494141
2024-11-13 15:02:42.945 +0100,48,69241.71989800001,-0.008270263671875,-0.0264739990234375,-0.998931884765625,69241.71119300001,-0.001520665013231337,-0.0008415589109063148,-0.002642388455569744,69241.72099700001,323.1021118164062,-217.8384857177734,-158.9807891845703
2024-11-13 15:02:42.955 +0100,49,69241.72984500001,-0.0066375732421875,-0.028472900390625,-0.999114990234375,69241.721141,0.003001116216182709,-0.002599245170131326,6.125270738266408e-05,69241.731281,323.3727722167969,-217.9066162109375,-158.7455444335938
2024-11-13 15:02:42.971 +0100,50,69241.739793,-0.00592041015625,-0.0282440185546875,-0.997283935546875,69241.731088,0.002182460390031338,-0.001788046327419579,-0.0002556634717620909,69241.74156400001,323.1738586425781,-218.0398559570312,-158.9443817138672
2024-11-13 15:02:42.975 +0100,51,69241.74974,-0.0083770751953125,-0.0275115966796875,-1.000030517578125,69241.74103600001,0.001527589163742959,-0.001500424928963184,-0.0001861549535533413,69241.751846,323.2996215820312,-217.8686828613281,-158.8145446777344
2024-11-13 15:02:42.985 +0100,52,69241.75968800001,-0.0062103271484375,-0.0269775390625,-1.001007080078125,69241.75098300001,0.001643702969886363,-0.003498861100524664,-0.002555303042754531,69241.762128,323.19677734375,-217.9557952880859,-159.1488800048828
2024-11-13 15:02:42.995 +0100,53,69241.769636,-0.00775146484375,-0.027618408203125,-0.9981689453125,69241.760931,0.002616023179143667,-0.001815743162296712,-0.00113743613474071,69241.77241000001,323.35986328125,-217.891357421875,-158.9534149169922
2024-11-13 15:02:43.005 +0100,54,69241.77958300001,-0.0101318359375,-0.027069091796875,-0.9996795654296875,69241.770879,0.0005075985100120306,-0.001899632741697133,-0.0002380866062594578,69241.782693,323.1694641113281,-218.0550231933594,-158.8730621337891
2024-11-13 15:02:43.015 +0100,55,69241.789531,-0.0077667236328125,-0.024261474609375,-0.99884033203125,69241.780826,0.001836249604821205,-0.00267727579921484,0.0003858920244965702,69241.782693,323.1694641113281,-218.0550231933594,-158.8730621337891
2024-11-13 15:02:43.032 +0100,56,69241.79947900001,-0.0085601806640625,-0.0258941650390625,-0.99871826171875,69241.79077400001,9.321063407696784e-05,-0.004704740364104509,-0.001528920722194016,69241.792975,323.3447875976562,-217.8487548828125,-158.8415222167969
2024-11-13 15:02:43.035 +0100,57,69241.80942600001,-0.0075225830078125,-0.02801513671875,-0.9975128173828125,69241.800722,0.002215217333287001,-0.00335664814338088,-0.001527322921901941,69241.80325900001,323.1661987304688,-218.0033416748047,-159.0306854248047
2024-11-13 15:02:43.045 +0100,58,69241.819374,-0.0075225830078125,-0.0265045166015625,-0.9998321533203125,69241.810669,-0.0003949467791244388,-0.002793655963614583,-0.003133208956569433,69241.81354,323.3550415039062,-217.8809967041016,-158.9185638427734
2024-11-13 15:02:43.055 +0100,59,69241.82932200001,-0.0073699951171875,-0.028656005859375,-0.9998016357421875,69241.820617,0.0009235842735506594,-0.003599794814363122,-0.001572596607729793,69241.823823,323.1134338378906,-217.9156646728516,-159.0292053222656
2024-11-13 15:02:43.065 +0100,60,69241.839269,-0.009033203125,-0.0272979736328125,-1.000350952148438,69241.83056500001,0.001189101370982826,-0.002409361768513918,0.001049019163474441,69241.834105,323.47119140625,-217.7991333007812,-159.1566162109375
2024-11-13 15:02:43.075 +0100,61,69241.84921700001,-0.0068817138671875,-0.0258331298828125,-0.9998321533203125,69241.84051200001,0.002413622802123427,-0.002043177140876651,0.002518018707633018,69241.844387,323.3666687011719,-217.9342041015625,-159.0051879882812
2024-11-13 15:02:43.085 +0100,62,69241.85916400001,-0.00677490234375,-0.027069091796875,-1.000274658203125,69241.85046,0.002123870886862278,-0.002170742489397526,-0.001872734865173697,69241.85467100001,323.4566345214844,-217.7485046386719,-159.0488433837891
2024-11-13 15:02:43.097 +0100,63,69241.869112,-0.007476806640625,-0.0263214111328125,-0.99945068359375,69241.860407,-0.002192580606788397,-0.002870355034247041,-0.002804042305797338,69241.864954,323.1855163574219,-218.0027465820312,-159.0239868164062
2024-11-13 15:02:43.105 +0100,64,69241.87906000001,-0.00848388671875,-0.026336669921875,-0.9988250732421875,69241.87035500001,8.708536915946752e-05,-0.0005427522119134665,-1.065264427779766e-06,69241.87523800001,323.38623046875,-217.7284545898438,-159.1649475097656
2024-11-13 15:02:43.114 +0100,65,69241.88900700001,-0.007171630859375,-0.0255889892578125,-0.9992828369140625,69241.880303,-3.888214996550232e-05,-0.002948385663330555,-0.002393382834270597,69241.885521,323.1942138671875,-217.8514709472656,-159.1398468017578
2024-11-13 15:02:43.124 +0100,66,69241.898955,-0.006500244140625,-0.0261688232421875,-1.000381469726562,69241.89025000001,0.000990962260402739,-0.001606152392923832,-0.0007603325066156685,69241.895804,323.3314208984375,-217.8274688720703,-159.1554718017578
2024-11-13 15:02:43.134 +0100,67,69241.908903,-0.00775146484375,-0.027374267578125,-1.000900268554688,69241.900198,0.0008351673022843897,-0.002651975722983479,-0.001961684552952647,69241.906088,323.2306518554688,-217.9789581298828,-159.1243438720703
2024-11-13 15:02:43.152 +0100,68,69241.91885,-0.007293701171875,-0.0271148681640625,-1.000564575195312,69241.91014600001,0.0006498112925328314,-0.002355033298954368,-0.0009534116834402084,69241.91637200001,323.2262573242188,-217.7881011962891,-159.0707244873047
2024-11-13 15:02:43.154 +0100,69,69241.92879800001,-0.007415771484375,-0.027557373046875,-0.9995574951171875,69241.930041,0.0023329290561378,-0.002915362361818552,-0.00109509180765599,69241.92665400001,323.4209594726562,-217.9226226806641,-159.1082153320312
2024-11-13 15:02:43.164 +0100,70,69241.93874500001,-0.0066680908203125,-0.02789306640625,-0.9987945556640625,69241.930041,0.0023329290561378,-0.002915362361818552,-0.00109509180765599,69241.93693700001,323.3255615234375,-217.8443756103516,-158.8871002197266
2024-11-13 15:02:43.174 +0100,71,69241.948693,-0.0086212158203125,-0.0252685546875,-0.999755859375,69241.939988,0.00367249920964241,-0.004934304859489202,-0.001507349195890129,69241.94722,323.2693481445312,-217.8732452392578,-158.8693542480469
2024-11-13 15:02:43.184 +0100,72,69241.958641,-0.007904052734375,-0.0252532958984375,-0.99755859375,69241.949936,0.00219044997356832,-0.002498577814549208,-0.002934803487733006,69241.957502,323.4517822265625,-217.7139434814453,-159.2279510498047
2024-11-13 15:02:43.194 +0100,73,69241.968588,-0.008392333984375,-0.0247802734375,-0.9987945556640625,69241.95988400001,0.002502039773389697,-0.001177117228507996,-0.00133850472047925,69241.967785,323.4249877929688,-217.7751007080078,-159.3561553955078
2024-11-13 15:02:43.205 +0100,74,69241.97853600001,-0.0093994140625,-0.0276336669921875,-0.9985504150390625,69241.96983100001,0.0003464772598817945,-0.003234142903238535,-0.0002018676022998989,69241.97806800001,323.3980712890625,-217.7798004150391,-159.0567474365234
2024-11-13 15:02:43.214 +0100,75,69241.988484,-0.0073089599609375,-0.0270538330078125,-0.9997100830078125,69241.979779,0.001493500778451562,-0.004141481593251228,-0.001308144768700004,69241.988352,323.5182495117188,-217.9341278076172,-159.1427001953125
2024-11-13 15:02:43.224 +0100,76,69241.998431,-0.007354736328125,-0.0286712646484375,-1.001800537109375,69241.98972700001,0.002093244576826692,-0.002158758463338017,-0.002043177140876651,69241.998637,323.24951171875,-217.9642028808594,-159.1278228759766
2024-11-13 15:02:43.234 +0100,77,69242.00837900001,-0.0076446533203125,-0.0269775390625,-1.00079345703125,69241.99967400001,0.002098570810630918,-0.002098304685205221,-0.001990979304537177,69242.00892000001,323.2737426757812,-217.9609527587891,-159.1307830810547
2024-11-13 15:02:43.244 +0100,78,69242.018327,-0.0072021484375,-0.026641845703125,-0.9982757568359375,69242.009622,0.0006442186422646046,-0.001437840634025633,-0.002785400254651904,69242.01920400001,323.2828979492188,-217.8705902099609,-158.9986724853516
2024-11-13 15:02:43.254 +0100,79,69242.02827400001,-0.007965087890625,-0.0278778076171875,-0.999542236328125,69242.01957,0.002585130510851741,-0.001001881202682853,7.723167072981596e-06,69242.02948900001,323.5394897460938,-217.7723236083984,-159.0510101318359
2024-11-13 15:02:43.272 +0100,80,69242.038222,-0.00787353515625,-0.0272369384765625,-1.00067138671875,69242.029517,0.0008386294357478619,-0.002009621355682611,-0.001054878113791347,69242.03977100001,323.2243041992188,-217.8987884521484,-158.904296875
2024-11-13 15:02:43.274 +0100,81,69242.048169,-0.0076751708984375,-0.0263671875,-1.000152587890625,69242.03946500001,0.002566222101449966,-0.002420014468953013,0.0002876213984563947,69242.050055,323.5249633789062,-217.7678985595703,-159.0566711425781
2024-11-13 15:02:43.284 +0100,82,69242.05811700001,-0.0083160400390625,-0.027679443359375,-0.9990997314453125,69242.04941200001,-5.645901546813548e-05,-0.001789910602383316,-0.003269562730565667,69242.060337,323.341552734375,-217.7615051269531,-159.0379180908203
2024-11-13 15:02:43.293 +0100,83,69242.068065,-0.008392333984375,-0.026458740234375,-0.99932861328125,69242.05936,0.002060487633571029,-0.002611229429021478,-0.001487375469878316,69242.07062,323.6512451171875,-217.7330169677734,-159.2418518066406
2024-11-13 15:02:43.303 +0100,84,69242.078012,-0.0076904296875,-0.0263214111328125,-1.001266479492188,69242.06930800001,0.001417067949660122,-0.00179204111918807,0.00236195744946599,69242.080902,323.2253723144531,-217.8689727783203,-159.1181945800781
2024-11-13 15:02:43.313 +0100,85,69242.08796,-0.0072479248046875,-0.027557373046875,-0.999969482421875,69242.079255,0.0003270361921750009,-0.004226170480251312,-0.002927346620708704,69242.080902,323.2253723144531,-217.8689727783203,-159.1181945800781
2024-11-13 15:02:43.331 +0100,86,69242.09790800001,-0.0078125,-0.0272979736328125,-0.9999237060546875,69242.08920300001,0.001344097428955138,-0.002192580606788397,-0.001938248635269701,69242.09118600001,323.6268615722656,-217.6796417236328,-158.9479675292969
2024-11-13 15:02:43.333 +0100,87,69242.10785500001,-0.0081939697265625,-0.0269775390625,-1.00079345703125,69242.109098,0.0005691175465472043,-0.001554220798425376,-0.0009962886106222868,69242.101469,323.2727661132812,-217.8132019042969,-159.2966613769531
2024-11-13 15:02:43.343 +0100,88,69242.117803,-0.0074310302734375,-0.0272369384765625,-0.9993438720703125,69242.109098,0.0005691175465472043,-0.001554220798425376,-0.0009962886106222868,69242.111752,323.523681640625,-217.7752990722656,-159.009033203125
2024-11-13 15:02:43.353 +0100,89,69242.12775100001,-0.0101470947265625,-0.026458740234375,-1.000137329101562,69242.11904600001,0.001045557088218629,-0.001462075393646955,-8.52211524033919e-05,69242.12203500001,323.3091430664062,-217.95458984375,-159.0756683349609
2024-11-13 15:02:43.363 +0100,90,69242.13769800001,-0.0081634521484375,-0.0272674560546875,-1.0006103515625,69242.128994,0.002420014468953013,-0.001969673903658986,-0.002032524440437555,69242.13231900001,323.3270568847656,-217.7791595458984,-158.8713073730469
2024-11-13 15:02:43.373 +0100,91,69242.147646,-0.0069732666015625,-0.0266571044921875,-1.001388549804688,69242.138941,0.0003219761711079627,-0.005287972744554281,-0.001143561326898634,69242.142601,323.2911376953125,-217.8472442626953,-159.0579681396484
2024-11-13 15:02:43.385 +0100,92,69242.15759300001,-0.0062713623046875,-0.0283660888671875,-1.00091552734375,69242.148889,0.0008511462947353721,-0.001759550534188747,0.0002846919232979417,69242.152885,323.1990356445312,-217.9456024169922,-159.0630950927734
2024-11-13 15:02:43.397 +0100,93,69242.167541,-0.00714111328125,-0.0275421142578125,-0.9990386962890625,69242.16878400001,0.001593102933838964,-0.0006167881074361503,0.0003560646437108517,69242.163168,323.1622314453125,-217.9394226074219,-159.0633850097656
2024-11-13 15:02:43.403 +0100,94,69242.17748900001,-0.0094451904296875,-0.0269927978515625,-0.9985198974609375,69242.16878400001,0.001593102933838964,-0.0006167881074361503,0.0003560646437108517,69242.17345,323.386962890625,-217.9058380126953,-159.0851593017578
2024-11-13 15:02:43.413 +0100,95,69242.18743600001,-0.0083770751953125,-0.0259246826171875,-0.9994354248046875,69242.178732,-0.0003075950953643769,-0.002784068696200848,0.0004913532175123692,69242.18373400001,323.1260375976562,-217.9439086914062,-159.2301635742188
2024-11-13 15:02:43.423 +0100,96,69242.197384,-0.0080108642578125,-0.0270538330078125,-1.000396728515625,69242.188679,-0.0006021407316438854,-0.0008942894637584686,0.001255414099432528,69242.194017,323.1895751953125,-217.9345092773438,-159.0172424316406
2024-11-13 15:02:43.433 +0100,97,69242.20733200001,-0.0091400146484375,-0.0253143310546875,-0.9990081787109375,69242.19862700001,-0.0004476773901842535,-0.00117924774531275,-0.0004516721237450838,69242.2043,323.3181457519531,-217.8370208740234,-159.0607147216797
2024-11-13 15:02:43.452 +0100,98,69242.217279,-0.0081634521484375,-0.02606201171875,-0.9999847412109375,69242.208575,0.001740109408274293,-0.001278050942346454,-0.0003179814375471324,69242.21458300001,323.2605285644531,-217.8128967285156,-159.2087097167969
2024-11-13 15:02:43.453 +0100,99,69242.22722700001,-0.0067901611328125,-0.0271148681640625,-1.000244140625,69242.21852200001,0.001479386002756655,-0.003545466344803572,-0.001667405129410326,69242.224867,323.2001037597656,-217.8786468505859,-159.0988006591797
2024-11-13 15:02:43.463 +0100,100,69242.237175,-0.0062103271484375,-0.0284423828125,-1.000335693359375,69242.22847,0.001341167953796685,-0.001808286411687732,-0.0007603325066156685,69242.235151,323.1593017578125,-217.9470367431641,-158.9202117919922
2024-11-13 15:02:43.473 +0100,101,69242.247122,-0.00732421875,-0.0276947021484375,-0.997100830078125,69242.23841800001,0.0006929545197635889,-0.002473011380061507,-0.0004229099722579122,69242.245435,323.2649536132812,-217.8848114013672,-158.9003143310547
2024-11-13 15:02:43.483 +0100,102,69242.25707000001,-0.0085906982421875,-0.0272979736328125,-0.9994659423828125,69242.24836500001,0.001451156451366842,-0.002954244613647461,-0.001991245429962873,69242.255718,323.2126159667969,-217.7234039306641,-158.9718780517578
2024-11-13 15:02:43.492 +0100,103,69242.26701700001,-0.008209228515625,-0.0272979736328125,-0.99993896484375,69242.258313,0.0004737763665616512,-0.003158775391057134,0.0006362291751429439,69242.266,323.3369140625,-217.9806213378906,-159.0347442626953
2024-11-13 15:02:43.505 +0100,104,69242.276965,-0.00836181640625,-0.026336669921875,-0.998931884765625,69242.26826,0.003764644498005509,-0.0005467469454742968,-0.004570250865072012,69242.27628400001,323.4027099609375,-217.9375915527344,-159.1036376953125
2024-11-13 15:02:43.514 +0100,105,69242.286913,-0.0071868896484375,-0.02734375,-0.9988250732421875,69242.278208,0.002447711303830147,-0.001672198879532516,-0.001672198879532516,69242.28656800001,323.3216247558594,-217.8660125732422,-159.0142669677734
2024-11-13 15:02:43.522 +0100,106,69242.29686,-0.006988525390625,-0.0278778076171875,-0.9987335205078125,69242.28815600001,-0.0002748382103163749,-0.003414172446355224,0.0001153148768935353,69242.29685100001,323.1476440429688,-217.931396484375,-159.0764617919922
2024-11-13 15:02:43.532 +0100,107,69242.30680800001,-0.0095062255859375,-0.02703857421875,-1.000259399414062,69242.29810300001,0.000176301269675605,-0.00256409146822989,0.0003182477375958115,69242.30713500001,323.2215270996094,-217.9848175048828,-158.9901580810547
2024-11-13 15:02:43.542 +0100,108,69242.316756,-0.009613037109375,-0.0268096923828125,-1.000503540039062,69242.308051,0.003532683243975043,-0.001895105466246605,9.640643111197278e-05,69242.317417,323.3183898925781,-217.8861389160156,-159.2559814453125
2024-11-13 15:02:43.552 +0100,109,69242.326703,-0.0081939697265625,-0.0272979736328125,-0.9988861083984375,69242.31799900001,0.0008263788768090308,-0.003314303932711482,9.321063407696784e-05,69242.32770000001,323.4698486328125,-217.7967376708984,-159.3641815185547
2024-11-13 15:02:43.562 +0100,110,69242.33665100001,-0.0078277587890625,-0.02587890625,-0.9978485107421875,69242.327946,0.002682602033019066,-0.002837331732735038,-0.001010403269901872,69242.337983,323.0811157226562,-217.9547119140625,-159.1298522949219
2024-11-13 15:02:43.572 +0100,111,69242.34659900001,-0.007598876953125,-0.025970458984375,-1.001754760742188,69242.33789400001,-0.0004348942020442337,-0.0007592672482132912,4.687163527705707e-05,69242.348266,323.3781127929688,-217.9119873046875,-159.2238159179688
2024-11-13 15:02:43.582 +0100,112,69242.35654600001,-0.008758544921875,-0.0253448486328125,-1.002166748046875,69242.347842,0.0003978762542828918,-0.002549710450693965,-0.0009712548344396055,69242.35855,323.2943725585938,-217.8158721923828,-159.299560546875
2024-11-13 15:02:43.592 +0100,113,69242.366494,-0.0098724365234375,-0.0265350341796875,-0.999237060546875,69242.357789,0.00216142158024013,-0.003225886961445212,-0.0008138620178215206,69242.368833,323.367431640625,-217.7573852539062,-159.5522155761719
2024-11-13 15:02:43.602 +0100,114,69242.37644200001,-0.00872802734375,-0.0260162353515625,-0.9987335205078125,69242.36773700001,0.002292981604114175,-0.001684715738520026,-0.0004338289436418563,69242.37911600001,323.2320556640625,-217.9111175537109,-159.173583984375
2024-11-13 15:02:43.612 +0100,115,69242.38638900001,-0.007232666015625,-0.02691650390625,-1.000686645507812,69242.377685,0.00370179396122694,0.0001616538793314248,-0.0005400890368036926,69242.38939900001,323.2867431640625,-217.78955078125,-158.9048156738281
2024-11-13 15:02:43.622 +0100,116,69242.396337,-0.0078887939453125,-0.0276641845703125,-1.000869750976562,69242.387632,0.0006881608278490603,-0.003515638876706362,-0.0009736517095007002,69242.38939900001,323.2867431640625,-217.78955078125,-158.9048156738281
2024-11-13 15:02:43.632 +0100,117,69242.406284,-0.009307861328125,-0.027740478515625,-0.999755859375,69242.407527,0.003240001853555441,-0.005456284619867802,-0.004800347611308098,69242.39968100001,323.3179016113281,-217.9351348876953,-159.2911224365234
2024-11-13 15:02:43.642 +0100,118,69242.416232,-0.007904052734375,-0.027313232421875,-0.998809814453125,69242.407527,0.003240001853555441,-0.005456284619867802,-0.004800347611308098,69242.409963,323.3612060546875,-217.9180755615234,-159.2373657226562
2024-11-13 15:02:43.652 +0100,119,69242.42618000001,-0.009735107421875,-0.02734375,-1.000076293945312,69242.41747500001,0.0008748483960516751,-0.001635180902667344,-0.001177649828605354,69242.42024600001,323.2764282226562,-217.8073883056641,-159.0803680419922
2024-11-13 15:02:43.662 +0100,120,69242.43612700001,-0.008544921875,-0.0272064208984375,-1.000091552734375,69242.427423,0.0008322378271259367,-0.00224877311848104,-0.001007473794743419,69242.430529,323.4656066894531,-217.5694732666016,-159.0006561279297
2024-11-13 15:02:43.672 +0100,121,69242.446075,-0.007965087890625,-0.02703857421875,-0.999420166015625,69242.43737,0.0002564624010119587,-0.001643436728045344,-0.002616822021082044,69242.440812,323.3220825195312,-217.7458648681641,-159.0379180908203
2024-11-13 15:02:43.681 +0100,122,69242.45602300001,-0.0082855224609375,-0.027008056640625,-0.997894287109375,69242.44731800001,0.002779274946078658,-0.003267698688432574,0.0002593918761704117,69242.451094,323.522216796875,-217.8354034423828,-159.2612457275391
2024-11-13 15:02:43.697 +0100,123,69242.46597,-0.009429931640625,-0.0283660888671875,-1.0003662109375,69242.457266,0.002513225190341473,-0.003635747591033578,-0.0007725830073468387,69242.46137800001,323.206787109375,-217.7357635498047,-159.1697845458984
2024-11-13 15:02:43.701 +0100,124,69242.47591800001,-0.006744384765625,-0.0274658203125,-1.001113891601562,69242.46721300001,0.0008351673022843897,-0.003407248295843601,-0.004776113200932741,69242.471661,323.2388305664062,-217.7270660400391,-159.1768646240234
2024-11-13 15:02:43.711 +0100,125,69242.485866,-0.0076141357421875,-0.0261993408203125,-0.9984588623046875,69242.477161,-0.001257810974493623,0.0005307680112309754,-0.0009350358741357923,69242.48194500001,323.0816650390625,-217.8903961181641,-158.8733673095703
2024-11-13 15:02:43.721 +0100,126,69242.495813,-0.0074920654296875,-0.02716064453125,-0.9992218017578125,69242.48710900001,0.002487925114110112,-0.0007917577750049531,-0.0005584649043157697,69242.492228,323.5578918457031,-217.708740234375,-158.8015747070312
2024-11-13 15:02:43.731 +0100,127,69242.50576100001,-0.007965087890625,-0.026519775390625,-1.000442504882812,69242.49705600001,0.002571281976997852,-0.001928927609696984,-0.0005542038124985993,69242.502511,323.1207885742188,-217.8468475341797,-158.7674255371094
2024-11-13 15:02:43.741 +0100,128,69242.515709,-0.0073699951171875,-0.0268402099609375,-1.001815795898438,69242.507004,0.003552390495315194,-0.003621100215241313,0.0002908172027673572,69242.51279400001,323.44921875,-217.6909027099609,-159.1668701171875
2024-11-13 15:02:43.751 +0100,129,69242.525656,-0.0077056884765625,-0.0269622802734375,-1.000244140625,69242.51695200001,0.002533731516450644,-0.004294081125408411,-0.001259941491298378,69242.52307700001,323.1983032226562,-217.8838348388672,-158.9911499023438
2024-11-13 15:02:43.761 +0100,130,69242.535604,-0.008087158203125,-0.0281219482421875,-0.9983367919921875,69242.526899,0.0009108011145144701,-0.0007994809420779347,-0.001167529844678938,69242.53336100001,323.55859375,-217.6852722167969,-158.9750823974609
2024-11-13 15:02:43.771 +0100,131,69242.545551,-0.0088348388671875,-0.027587890625,-0.9989471435546875,69242.53684700001,-0.0005763080553151667,-0.002270344877615571,-0.0004122573300264776,69242.543644,323.2662048339844,-217.7914886474609,-158.9735870361328
2024-11-13 15:02:43.781 +0100,132,69242.55549900001,-0.0081634521484375,-0.028411865234375,-0.9981689453125,69242.54679400001,0.0009795106016099453,-0.0009025452891364694,-0.001860484364442527,69242.553927,323.3594055175781,-217.8036346435547,-158.8712005615234
2024-11-13 15:02:43.791 +0100,133,69242.565447,-0.0081634521484375,-0.0280609130859375,-0.99896240234375,69242.556742,-0.0002181128947995603,-0.0009302421822212636,-0.001669535646215081,69242.56421000001,323.2872924804688,-217.9498901367188,-159.0765075683594
2024-11-13 15:02:43.801 +0100,134,69242.575394,-0.008148193359375,-0.02630615234375,-0.9985504150390625,69242.56669000001,0.0009086705395020545,-0.001802161103114486,-0.0007158577209338546,69242.57449300001,323.2159423828125,-217.9248809814453,-158.8031463623047
2024-11-13 15:02:43.813 +0100,135,69242.58534200001,-0.0083770751953125,-0.0272369384765625,-0.9994659423828125,69242.57663700001,-2.583266177680343e-05,-0.002758235903456807,-0.0003587277897167951,69242.58477700001,323.3978576660156,-217.8063354492188,-159.0982360839844
2024-11-13 15:02:43.821 +0100,136,69242.59529,-0.008087158203125,-0.026611328125,-1.002090454101562,69242.586585,0.00061279337387532,-0.003331081941723824,0.0001840244367485866,69242.59506200001,323.2276306152344,-217.8434600830078,-158.9377593994141
2024-11-13 15:02:43.831 +0100,137,69242.60523700001,-0.0068206787109375,-0.0285186767578125,-1.000335693359375,69242.596533,-0.001680454588495195,-0.002853044541552663,-0.0003235740587115288,69242.60534600001,323.4436340332031,-217.6904144287109,-158.7378540039062
2024-11-13 15:02:43.840 +0100,138,69242.615185,-0.00738525390625,-0.0262908935546875,-0.998504638671875,69242.60648,0.001234907773323357,-0.003999801818281412,-0.0009235842735506594,69242.615632,323.369873046875,-217.6591339111328,-158.8968963623047
2024-11-13 15:02:43.851 +0100,139,69242.62513300001,-0.0074310302734375,-0.027557373046875,-0.999114990234375,69242.61642800001,0.001433047000318766,-0.003462375607341528,-7.456851108145202e-06,69242.625916,323.3815307617188,-217.6056823730469,-159.0561981201172
2024-11-13 15:02:43.860 +0100,140,69242.63508000001,-0.005859375,-0.0277099609375,-0.9998016357421875,69242.626376,0.001251685665920377,-0.002359294332563877,-0.002253034152090549,69242.63620000001,323.3737487792969,-217.7155151367188,-158.7159729003906
2024-11-13 15:02:43.872 +0100,141,69242.645028,-0.0085906982421875,-0.0271453857421875,-1.000045776367188,69242.636323,0.001671399921178818,-0.002579537918791175,-0.00236728391610086,69242.646484,323.4082641601562,-217.6080322265625,-159.0834045410156
2024-11-13 15:02:43.880 +0100,142,69242.65497600001,-0.0075531005859375,-0.026824951171875,-1.000259399414062,69242.64627100001,0.001872468506917357,-0.004249606281518936,-2.849582415365148e-05,69242.656768,323.14453125,-217.6181945800781,-158.7199859619141
2024-11-13 15:02:43.890 +0100,143,69242.664923,-0.006561279296875,-0.0268402099609375,-1.000289916992188,69242.65621900001,0.001601625117473304,-0.004572114907205105,-0.001063932897523046,69242.667052,323.510986328125,-217.6781768798828,-158.9941711425781
2024-11-13 15:02:43.900 +0100,144,69242.67487100001,-0.0071258544921875,-0.0273895263671875,-1.00030517578125,69242.66616600001,-0.001842641155235469,-0.002432797569781542,-0.001205613021738827,69242.677337,323.3424072265625,-217.6457366943359,-158.9954071044922
2024-11-13 15:02:43.910 +0100,145,69242.68481791667,-0.0077056884765625,-0.0276641845703125,-0.9993896484375,69242.676114,0.0002985403698403388,-0.00293347192928195,-0.002838929649442434,69242.687621,323.4713134765625,-217.7479553222656,-158.6228485107422
2024-11-13 15:02:43.920 +0100,146,69242.69476591668,-0.0082244873046875,-0.0284271240234375,-0.998321533203125,69242.68606091668,0.002690325258299708,-0.001544367056339979,-0.0005984122981317341,69242.69790491667,323.2112121582031,-217.7321472167969,-158.9683685302734
2024-11-13 15:02:43.932 +0100,147,69242.70471391667,-0.0090179443359375,-0.0272216796875,-1.000076293945312,69242.69600891667,0.002225070958957076,-0.003151584882289171,-0.0007142598042264581,69242.69790491667,323.2112121582031,-217.7321472167969,-158.9683685302734
2024-11-13 15:02:43.940 +0100,148,69242.71466091667,-0.0077972412109375,-0.0264129638671875,-1.0015869140625,69242.70595691667,-0.000758734589908272,-0.0008088020258583128,-0.0004868258547503501,69242.70818891667,323.630126953125,-217.5953216552734,-158.9788665771484
2024-11-13 15:02:43.950 +0100,149,69242.72460891667,-0.0068511962890625,-0.026641845703125,-1.000823974609375,69242.71590391667,0.0002569950302131474,0.002000566571950912,-0.0005672533297911286,69242.71847191667,323.1356811523438,-217.7359771728516,-158.6826934814453
2024-11-13 15:02:43.960 +0100,150,69242.73455691666,-0.0092315673828125,-0.026580810546875,-0.998779296875,69242.72585191666,0.001869805390015244,-0.002619751496240497,-0.0007555388147011399,69242.72875591667,323.1619873046875,-217.7044677734375,-158.8483734130859
2024-11-13 15:02:43.970 +0100,151,69242.74450391668,-0.0091705322265625,-0.027130126953125,-0.998748779296875,69242.73579991667,0.003120958572253585,-0.001605886151082814,0.0002253034326713532,69242.73904091667,323.0809326171875,-217.8800354003906,-158.8207855224609
2024-11-13 15:02:43.980 +0100,152,69242.75445191667,-0.0081939697265625,-0.0275421142578125,-0.9995269775390625,69242.74574691667,0.002924683503806591,-0.00146926601883024,-0.002445314545184374,69242.74932391667,323.3483276367188,-217.6114044189453,-159.0743255615234
2024-11-13 15:02:43.996 +0100,153,69242.76439991668,-0.0073394775390625,-0.0265655517578125,-0.999359130859375,69242.75569491668,0.001680987305007875,-0.002406965009868145,-0.001687378855422139,69242.75960691668,323.1366577148438,-217.6102294921875,-158.9046173095703
2024-11-13 15:02:44.000 +0100,154,69242.77434691667,-0.0099029541015625,-0.0278472900390625,-0.9994354248046875,69242.76564291667,0.001972869737073779,-0.0005733785801567137,0.0003946804790757596,69242.76988991667,323.4625244140625,-217.4878997802734,-158.8464965820312
2024-11-13 15:02:44.010 +0100,155,69242.78429491667,-0.0086669921875,-0.027862548828125,-0.9990692138671875,69242.77558991667,0.0004631237243302166,-0.00201894249767065,-0.001451156451366842,69242.78017491667,323.111083984375,-217.7647857666016,-159.0241546630859
2024-11-13 15:02:44.020 +0100,156,69242.79424291667,-0.0088043212890625,-0.0270538330078125,-0.9994354248046875,69242.78553791667,0.001247957232408226,-0.002418682910501957,0.0005147890187799931,69242.79045891667,323.4320983886719,-217.7129058837891,-158.8986511230469
2024-11-13 15:02:44.030 +0100,157,69242.80418991667,-0.006805419921875,-0.02716064453125,-0.9996185302734375,69242.79548591666,0.001512409187853336,-0.00176274636760354,0.0004205131263006479,69242.80074291668,323.1460571289062,-217.6934204101562,-159.1054077148438
2024-11-13 15:02:44.039 +0100,158,69242.81413791668,-0.0062103271484375,-0.027435302734375,-1.000045776367188,69242.80543291668,0.0006423544255085289,-0.0005390237784013152,-0.000592287047766149,69242.81102691666,323.4249267578125,-217.5276184082031,-158.7725219726562
2024-11-13 15:02:44.052 +0100,159,69242.82408591667,-0.006256103515625,-0.02740478515625,-0.998626708984375,69242.81538091667,-0.0001272990921279415,-0.002798449713736773,3.834952076431364e-05,69242.82131091667,323.092041015625,-217.5519866943359,-159.1761474609375
2024-11-13 15:02:44.060 +0100,160,69242.83403291667,-0.00897216796875,-0.02734375,-0.9996337890625,69242.82532891668,0.0005352954030968249,-0.003374224994331598,-0.002114283619448543,69242.83159391666,323.5325317382812,-217.5289001464844,-158.7661895751953
2024-11-13 15:02:44.069 +0100,161,69242.84398091667,-0.0072479248046875,-0.0272979736328125,-1.000747680664062,69242.83527591667,-0.001218129880726337,-0.002087119268253446,-0.001857022172771394,69242.84187691667,323.0891723632812,-217.6756439208984,-158.9710845947266
2024-11-13 15:02:44.079 +0100,162,69242.85392791667,-0.0080413818359375,-0.026702880859375,-0.9985198974609375,69242.84522391667,0.00358754419721663,-0.0002117213007295504,-0.001748365233652294,69242.85215991667,323.5569458007812,-217.5387115478516,-159.1590728759766
2024-11-13 15:02:44.089 +0100,163,69242.86387591666,-0.0079345703125,-0.026397705078125,-0.998046875,69242.85517091666,0.001045024371705949,-0.001967010786756873,0.0003177151083946228,69242.86244191667,323.145263671875,-217.4824981689453,-159.1776123046875
2024-11-13 15:02:44.099 +0100,164,69242.87382391667,-0.007354736328125,-0.02716064453125,-1.000350952148438,69242.86511891667,0.001265001483261585,-0.001818938995711505,-0.001005077036097646,69242.87272391668,323.5269775390625,-217.5263824462891,-158.7533111572266
2024-11-13 15:02:44.113 +0100,165,69242.88377091667,-0.007354736328125,-0.026763916015625,-1.000396728515625,69242.87506691668,0.0008631304954178631,-0.002737995935603976,-0.0008303736103698611,69242.88300691667,323.3929443359375,-217.6098022460938,-158.9256896972656
2024-11-13 15:02:44.119 +0100,166,69242.89371891668,-0.0064849853515625,-0.02593994140625,-0.997589111328125,69242.88501391668,0.00176674104295671,-0.004389155656099319,-7.456851017195731e-05,69242.89328991667,323.4185791015625,-217.4775543212891,-158.8310089111328
2024-11-13 15:02:44.129 +0100,167,69242.90366691667,-0.0075531005859375,-0.02655029296875,-0.9980010986328125,69242.89496191667,-0.001598162925802171,-0.001804557978175581,-0.001128647709265351,69242.90357291666,323.1630249023438,-217.5703735351562,-158.9146423339844
2024-11-13 15:02:44.139 +0100,168,69242.91361391667,-0.0080718994140625,-0.0274658203125,-0.99822998046875,69242.90490991667,0.001676726154983044,-0.002222674200311303,0.001567004015669227,69242.91385691667,323.3181762695312,-217.5402526855469,-159.0282135009766
2024-11-13 15:02:44.149 +0100,169,69242.92356191667,-0.0087890625,-0.02880859375,-1.000335693359375,69242.91485691667,0.001324656303040683,-0.001270327833481133,-0.001435976475477219,69242.92413991666,323.0743103027344,-217.5685577392578,-159.2463684082031
2024-11-13 15:02:44.159 +0100,170,69242.93350991666,-0.0062103271484375,-0.0274810791015625,-1.000991821289062,69242.92480491668,0.002335326047614217,-0.00327355763874948,-0.0009049421059899032,69242.93442191667,323.26806640625,-217.5959167480469,-158.7300720214844
2024-11-13 15:02:44.171 +0100,171,69242.94345691668,-0.007080078125,-0.026397705078125,-0.9986419677734375,69242.93475291667,0.002621083054691553,-0.002419748110696673,0.0008793757879175246,69242.94470591667,323.3464965820312,-217.6250457763672,-159.1195220947266
2024-11-13 15:02:44.179 +0100,172,69242.95340491667,-0.0070953369140625,-0.0268096923828125,-0.99859619140625,69242.94469991667,0.004085288848727942,-0.003024552017450333,5.406216951087117e-05,69242.95498991667,323.3413696289062,-217.5876617431641,-158.7939605712891
2024-11-13 15:02:44.189 +0100,173,69242.96335291667,-0.00726318359375,-0.0274810791015625,-1.001251220703125,69242.95464791667,0.003748399205505848,-0.004679174162447453,-0.001211471972055733,69242.96527391668,323.4096984863281,-217.5642547607422,-159.0853424072266
2024-11-13 15:02:44.199 +0100,174,69242.97329991667,-0.006988525390625,-0.0277099609375,-0.9992523193359375,69242.96459591667,0.001000549644231796,-0.004198473412543535,-0.002971821464598179,69242.97555691667,323.2942199707031,-217.5644989013672,-159.0974731445312
2024-11-13 15:02:44.208 +0100,175,69242.98324791667,-0.0069122314453125,-0.02886962890625,-0.999053955078125,69242.97454291667,0.002078863559290767,-0.001752626267261803,-0.003425091505050659,69242.98583991667,323.37744140625,-217.6615600585938,-159.0896606445312
2024-11-13 15:02:44.219 +0100,176,69242.99319591667,-0.0073089599609375,-0.0275726318359375,-0.998077392578125,69242.98449091667,0.002234924817457795,-0.001914546475745738,-0.001044225413352251,69242.99612391667,323.1840209960938,-217.581298828125,-158.9096374511719
2024-11-13 15:02:44.232 +0100,177,69243.00314291667,-0.0068359375,-0.027008056640625,-1.002227783203125,69242.99443891668,0.002400040859356523,-0.003034672001376748,-0.002109489869326353,69242.99612391667,323.1840209960938,-217.581298828125,-158.9096374511719
2024-11-13 15:02:44.238 +0100,178,69243.01309091668,-0.00714111328125,-0.0272979736328125,-1.000717163085938,69243.00438591668,-0.002114549977704883,-0.00169084093067795,-0.001212270930409431,69243.00640691667,323.2916259765625,-217.5828247070312,-159.0565185546875
2024-11-13 15:02:44.248 +0100,179,69243.02303791668,-0.007049560546875,-0.0269317626953125,-0.9987030029296875,69243.01433391667,0.003044791985303164,-0.00293267285451293,-0.0008596684201620519,69243.01669091667,323.270751953125,-217.7464752197266,-158.9880981445312
2024-11-13 15:02:44.258 +0100,180,69243.03298591667,-0.0070037841796875,-0.0261383056640625,-0.99871826171875,69243.02428091667,-0.001611212501302361,-0.001663943054154515,-0.0007475492893718183,69243.02697591667,323.2799682617188,-217.8069610595703,-159.0332641601562
2024-11-13 15:02:44.268 +0100,181,69243.04293391667,-0.0088348388671875,-0.026519775390625,-1.001861572265625,69243.03422891667,0.001316666835919023,-0.002473544096574187,-0.0004125236591789871,69243.03725991667,323.1571044921875,-217.6991119384766,-158.7760772705078
2024-11-13 15:02:44.278 +0100,182,69243.05288091667,-0.00714111328125,-0.0260009765625,-0.9993743896484375,69243.04417691666,0.002515621948987246,-0.001284975209273398,-0.000391218374716118,69243.04754391668,323.4717407226562,-217.6756744384766,-159.1309356689453
2024-11-13 15:02:44.288 +0100,183,69243.06282891668,-0.00726318359375,-0.0279998779296875,-0.9968719482421875,69243.05412391668,0.001224521431140602,-0.002898584585636854,-0.001420796383172274,69243.05782791667,323.2659606933594,-217.6655120849609,-159.0520324707031
2024-11-13 15:02:44.298 +0100,184,69243.07277691667,-0.00714111328125,-0.0269775390625,-0.998046875,69243.06407191667,0.002385127125307918,-0.003584348596632481,-0.00166633992921561,69243.06811191667,323.5253601074219,-217.4461975097656,-158.8078155517578
2024-11-13 15:02:44.308 +0100,185,69243.08272391667,-0.00909423828125,-0.026336669921875,-1.00018310546875,69243.07401991668,0.0002284992224304006,-0.001736380974762142,-0.0007403587806038558,69243.07839591667,323.1370544433594,-217.6440734863281,-158.9083557128906
2024-11-13 15:02:44.318 +0100,186,69243.09267191667,-0.005950927734375,-0.0282440185546875,-1.000411987304688,69243.08396691667,0.001191232004202902,-0.003280481789261103,-0.00267780851572752,69243.08867991668,323.3807678222656,-217.5102233886719,-158.7164611816406
2024-11-13 15:02:44.328 +0100,187,69243.10261991667,-0.0068511962890625,-0.02801513671875,-1.000778198242188,69243.09391491667,0.002386725042015314,-0.004609132651239634,0.001258876291103661,69243.09896391667,323.0499267578125,-217.7773590087891,-159.1623382568359
2024-11-13 15:02:44.338 +0100,188,69243.11256691666,-0.0076751708984375,-0.027801513671875,-0.998321533203125,69243.10386291667,0.001545698731206357,-0.004704207647591829,-0.0003760383406188339,69243.10924691668,323.2470092773438,-217.62060546875,-159.1398468017578
2024-11-13 15:02:44.352 +0100,189,69243.12251491667,-0.0078125,-0.0269317626953125,-0.999298095703125,69243.11380991667,0.002230930142104626,-0.0028791434597224,-0.0008623315370641649,69243.11953091667,322.9370727539062,-217.7033081054688,-159.0194091796875
2024-11-13 15:02:44.358 +0100,190,69243.13246291668,-0.0096893310546875,-0.0269622802734375,-1.000457763671875,69243.12375791668,0.0008141283178701997,-0.00321843009442091,-0.0001510012370999902,69243.12981391668,323.2194519042969,-217.7072601318359,-158.9454498291016
2024-11-13 15:02:44.368 +0100,191,69243.14240991668,-0.00946044921875,-0.02593994140625,-0.9996795654296875,69243.13370591667,0.0009816411184147,-0.002342782681807876,-0.003270361805334687,69243.14009791666,323.0717163085938,-217.6798095703125,-158.6753082275391
2024-11-13 15:02:44.378 +0100,192,69243.15235791667,-0.0070953369140625,-0.02703857421875,-0.997467041015625,69243.14365291667,-0.0004953479510731995,-0.00261921901255846,-0.0002231729013146833,69243.15038291668,323.46484375,-217.477294921875,-158.5500640869141
2024-11-13 15:02:44.388 +0100,193,69243.16230591667,-0.0079498291015625,-0.0272979736328125,-0.999542236328125,69243.15360091667,-0.0006615291931666434,-0.004087686073035002,0.0003137203748337924,69243.16066591667,323.0849609375,-217.760009765625,-158.7532043457031
2024-11-13 15:02:44.398 +0100,194,69243.17225291667,-0.005767822265625,-0.02734375,-1.00250244140625,69243.16354891667,0.004450408276170492,-0.006054163910448551,-0.001234641415067017,69243.17094991668,323.2480773925781,-217.5,-158.5787200927734
2024-11-13 15:02:44.413 +0100,195,69243.18220091666,-0.0074462890625,-0.027130126953125,-1.001480102539062,69243.17349591666,0.001206145621836185,-0.004882639274001122,-0.001508947112597525,69243.18123391666,322.9508361816406,-217.5736541748047,-158.9302062988281
2024-11-13 15:02:44.418 +0100,196,69243.19214891667,-0.0086822509765625,-0.0277099609375,-0.9994964599609375,69243.18344391667,-0.0001677791442489251,-0.001449558534659445,0.001111603458411992,69243.19151891668,323.4028625488281,-217.4300384521484,-158.7188568115234
2024-11-13 15:02:44.428 +0100,197,69243.20209591667,-0.0078887939453125,-0.028594970703125,-1.000213623046875,69243.19339191668,-0.001954227685928345,-0.004865062423050404,-0.0002458097587805241,69243.20180291666,322.984130859375,-217.5699768066406,-158.6210479736328
2024-11-13 15:02:44.438 +0100,198,69243.21204391668,-0.0075225830078125,-0.027984619140625,-0.9992523193359375,69243.20333891668,0.002270344877615571,-0.004522313829511404,-0.001815476920455694,69243.21208691667,323.2342224121094,-217.480224609375,-158.5372619628906
2024-11-13 15:02:44.447 +0100,199,69243.22199191667,-0.0074920654296875,-0.0272369384765625,-1.000015258789062,69243.21328691667,-0.0004660531994886696,-0.003783819265663624,0.001540638622827828,69243.22237091667,323.02734375,-217.5560455322266,-158.6113128662109
2024-11-13 15:02:44.457 +0100,200,69243.23193891667,-0.007904052734375,-0.0263214111328125,-0.9993896484375,69243.22323491667,0.0003616572648752481,-0.00452790642157197,-0.002448510378599167,69243.23265391667,323.3983764648438,-217.4115905761719,-158.7029571533203
2024-11-13 15:02:44.473 +0100,201,69243.24188691667,-0.0095977783203125,-0.025604248046875,-0.998321533203125,69243.23318191667,-0.001429318566806614,-0.004247209057211876,-0.0025939189363271,69243.24293791667,323.1408081054688,-217.7073822021484,-158.7634887695312
2024-11-13 15:02:44.477 +0100,202,69243.25183391667,-0.0083160400390625,-0.0276641845703125,-1.000350952148438,69243.24312991666,0.003752926597371697,-0.001336107961833477,-0.003602457931265235,69243.25322091667,323.2061767578125,-217.7329254150391,-158.7744293212891
2024-11-13 15:02:44.487 +0100,203,69243.26178191668,-0.0086212158203125,-0.0276031494140625,-1.000961303710938,69243.25307691668,0.001598429284058511,-0.002371012233197689,0.0001185106666525826,69243.26350491667,323.0415344238281,-217.7339172363281,-158.8045349121094
2024-11-13 15:02:44.497 +0100,204,69243.27172991667,-0.0082244873046875,-0.0278472900390625,-1.000411987304688,69243.26302491667,-0.0002705771767068654,-0.0003320961841382086,-0.003582484321668744,69243.27378891667,323.0098266601562,-217.7203979492188,-158.7622680664062
2024-11-13 15:02:44.507 +0100,205,69243.28167691667,-0.0088348388671875,-0.026580810546875,-0.998992919921875,69243.27297291667,0.002400839701294899,-0.004809136036783457,-0.0007938882918097079,69243.28407091668,323.0797729492188,-217.7357788085938,-158.8220520019531
2024-11-13 15:02:44.517 +0100,206,69243.29162491667,-0.00701904296875,-0.026458740234375,-0.9998931884765625,69243.28291991667,0.002422943944111466,-0.003059173235669732,-0.001265001483261585,69243.29435391667,323.28466796875,-217.5901184082031,-158.9220886230469
2024-11-13 15:02:44.532 +0100,207,69243.30157291667,-0.0067901611328125,-0.026702880859375,-0.99993896484375,69243.29286791667,-0.0003651193692348897,-0.002772616920992732,-0.0008833705214783549,69243.29435391667,323.28466796875,-217.5901184082031,-158.9220886230469
2024-11-13 15:02:44.537 +0100,208,69243.31151991666,-0.0087738037109375,-0.02642822265625,-0.9975433349609375,69243.30281591667,0.003251187037676573,-0.003427221905440092,0.0002703108475543559,69243.30463891667,323.2213439941406,-217.6168518066406,-158.8668518066406
2024-11-13 15:02:44.547 +0100,209,69243.32146791667,-0.0075836181640625,-0.02716064453125,-0.998321533203125,69243.31276291667,-0.00121306988876313,-0.0006053365068510175,7.669904152862728e-05,69243.31492291667,323.1636047363281,-217.6432037353516,-158.730224609375
2024-11-13 15:02:44.557 +0100,210,69243.33141591668,-0.0071258544921875,-0.02679443359375,-1.000503540039062,69243.32271091668,0.002636263146996498,-0.001917209709063172,0.001002680161036551,69243.32520791667,323.2842712402344,-217.59375,-158.873046875
2024-11-13 15:02:44.567 +0100,211,69243.34136291668,-0.0069122314453125,-0.0273895263671875,-1.0006103515625,69243.33265891667,0.002449575578793883,-0.001761148450896144,-0.00376064982265234,69243.33549191667,323.2088623046875,-217.6049499511719,-159.0880584716797
2024-11-13 15:02:44.577 +0100,212,69243.35131091667,-0.0057525634765625,-0.0276031494140625,-0.999755859375,69243.34260591667,0.001541437581181526,-0.002402437618002295,0.0005174521938897669,69243.34577691667,323.1151733398438,-217.6705322265625,-158.7543487548828
2024-11-13 15:02:44.587 +0100,213,69243.36125891667,-0.0069580078125,-0.02703857421875,-1.000823974609375,69243.35255391667,0.001083107548765838,-0.004227501805871725,0.000773381965700537,69243.35606091667,323.0393981933594,-217.6347961425781,-159.2503814697266
2024-11-13 15:02:44.597 +0100,214,69243.37120591667,-0.009002685546875,-0.027130126953125,-1.000137329101562,69243.36250191666,0.001030643354170024,-0.0004604605492204428,-0.00136407115496695,69243.36634491668,323.1705627441406,-217.7366485595703,-158.7883605957031
2024-11-13 15:02:44.607 +0100,215,69243.38115391666,-0.008056640625,-0.0261077880859375,-1.000885009765625,69243.37244891668,0.0006103964988142252,-0.004288222175091505,-0.001212537288665771,69243.37662991667,323.188232421875,-217.6579284667969,-158.7589111328125
2024-11-13 15:02:44.617 +0100,216,69243.39110191667,-0.007232666015625,-0.0269622802734375,-1.000289916992188,69243.38239691667,0.002291117561981082,-0.002749980194494128,0.0006780407857149839,69243.38691391666,323.0952758789062,-217.810302734375,-158.9157867431641
2024-11-13 15:02:44.626 +0100,217,69243.40104891667,-0.00714111328125,-0.0272674560546875,-0.9986572265625,69243.39234491668,0.001421062741428614,-0.003980893176048994,-0.000185888638952747,69243.39719691667,323.1180419921875,-217.6334381103516,-158.8755645751953
2024-11-13 15:02:44.636 +0100,218,69243.41099691667,-0.0071563720703125,-0.0260162353515625,-0.9979400634765625,69243.40229191667,0.003781422507017851,-0.0003608583356253803,-0.002273274352774024,69243.40748091668,323.0753479003906,-217.8278961181641,-159.0072021484375
2024-11-13 15:02:44.652 +0100,219,69243.42094491667,-0.008544921875,-0.0263824462890625,-0.998870849609375,69243.41223991667,0.000523843802511692,-0.000472977408207953,-0.001792573719285429,69243.41776391667,323.0738525390625,-217.7370910644531,-159.0451507568359
2024-11-13 15:02:44.656 +0100,220,69243.43089191667,-0.0073089599609375,-0.0268402099609375,-1.000228881835938,69243.42218791667,0.001472728094086051,0.0004926847759634256,-0.002365419641137123,69243.42804691667,323.245361328125,-217.6971588134766,-159.0130767822266
2024-11-13 15:02:44.666 +0100,221,69243.44083991667,-0.00738525390625,-0.027618408203125,-0.999847412109375,69243.43213491667,0.0014772554859519,-0.001226119347847998,-0.003728425595909357,69243.43833191667,322.8589477539062,-217.7306976318359,-158.8507080078125
2024-11-13 15:02:44.676 +0100,222,69243.45078791668,-0.0069732666015625,-0.0271148681640625,-0.998046875,69243.44208291668,0.002371012233197689,-0.003120159497484565,-0.001910019083879888,69243.44861591667,323.2086791992188,-217.5529174804688,-159.0484008789062
2024-11-13 15:02:44.686 +0100,223,69243.46073491668,-0.0060882568359375,-0.0262603759765625,-0.9995269775390625,69243.45203091667,0.001034638029523194,-0.003518301993608475,-0.001094559207558632,69243.45889991667,322.9539489746094,-217.6140594482422,-158.7012634277344
2024-11-13 15:02:44.696 +0100,224,69243.47068291667,-0.0069732666015625,-0.0257415771484375,-0.9991455078125,69243.46197791667,-9.454221435589716e-05,-0.003382214577868581,-0.0007478156476281583,69243.46918391668,323.2109069824219,-217.5396423339844,-159.2761077880859
2024-11-13 15:02:44.706 +0100,225,69243.48063091667,-0.0074005126953125,-0.0275115966796875,-0.99969482421875,69243.47192591667,-0.0003795004449784756,-0.003663976909592748,-6.178533658385277e-05,69243.47946791667,323.0087585449219,-217.8206481933594,-159.1226043701172
2024-11-13 15:02:44.716 +0100,226,69243.49057791667,-0.00665283203125,-0.0264892578125,-0.999420166015625,69243.48187391667,0.002102565718814731,-0.005542038008570671,0.000171241263160482,69243.48975091668,323.2307434082031,-217.4849700927734,-158.7357940673828
2024-11-13 15:02:44.726 +0100,227,69243.50052591666,-0.006927490234375,-0.027923583984375,-0.9989776611328125,69243.49182091666,-0.002173938322812319,-0.003723631845787168,0.001515072304755449,69243.50003491667,322.9066162109375,-217.7479553222656,-158.8714447021484
2024-11-13 15:02:44.736 +0100,228,69243.51047391667,-0.008392333984375,-0.0261688232421875,-1.00018310546875,69243.50176891667,0.002846652874723077,-0.003896737238392234,-0.0003118561580777168,69243.51031891667,323.2969360351562,-217.5894927978516,-158.7596588134766
2024-11-13 15:02:44.746 +0100,229,69243.52042091667,-0.0073089599609375,-0.02606201171875,-1.0015869140625,69243.51171691668,0.002590723102912307,-0.002157959388568997,0.0005707154050469398,69243.52060191667,322.8211975097656,-217.6795501708984,-158.9616241455078
2024-11-13 15:02:44.756 +0100,230,69243.53036891668,-0.006072998046875,-0.027557373046875,-0.9996337890625,69243.52166391668,0.0005925533478148282,-0.004424575716257095,8.894957863958552e-05,69243.53088591667,323.3219604492188,-217.7129058837891,-159.0581817626953
2024-11-13 15:02:44.769 +0100,231,69243.54031691667,-0.0067138671875,-0.026641845703125,-0.9972991943359375,69243.54155991667,0.0003304982965346426,-0.001877262257039547,-0.0004340952436905354,69243.54116991667,322.8824462890625,-217.7855987548828,-159.1027374267578
2024-11-13 15:02:44.775 +0100,232,69243.55026391667,-0.0091552734375,-0.0275421142578125,-0.9989776611328125,69243.54155991667,0.0003304982965346426,-0.001877262257039547,-0.0004340952436905354,69243.55145391668,323.165283203125,-217.5616455078125,-158.8524932861328
2024-11-13 15:02:44.785 +0100,233,69243.56021191667,-0.00775146484375,-0.026092529296875,-1.000701904296875,69243.55150691667,0.001101749716326594,-0.003058906877413392,-0.002410426968708634,69243.56173791667,322.954833984375,-217.6375427246094,-159.2191772460938
2024-11-13 15:02:44.796 +0100,234,69243.57015991666,-0.0076141357421875,-0.026824951171875,-0.99908447265625,69243.56145491666,-0.0002146507758880034,-0.0001984054979402572,-0.001429052208550274,69243.57202091668,323.5029296875,-217.4320068359375,-159.0980987548828
2024-11-13 15:02:44.805 +0100,235,69243.58010691668,-0.0078277587890625,-0.027374267578125,-1.000244140625,69243.57140291667,0.0008383630774915218,0.0003395530220586807,-0.003018959425389767,69243.58230491666,323.1819458007812,-217.7181396484375,-159.1477661132812
2024-11-13 15:02:44.815 +0100,236,69243.59005491667,-0.0090484619140625,-0.0258331298828125,-1.000335693359375,69243.58134991667,0.0004434163274709135,-0.002009887713938951,0.001400822773575783,69243.59258891667,323.24462890625,-217.6868591308594,-159.1638031005859
2024-11-13 15:02:44.829 +0100,237,69243.60000191667,-0.0078582763671875,-0.027099609375,-1.00048828125,69243.59129791668,-0.0003989415417890996,-0.001819205353967845,-0.00145648280158639,69243.60287191666,323.2477111816406,-217.689453125,-159.1405029296875
2024-11-13 15:02:44.835 +0100,238,69243.60994991667,-0.0098724365234375,-0.0284576416015625,-0.998382568359375,69243.60124491667,0.002486327197402716,-0.003220028011128306,0.0004783037293236703,69243.60287191666,323.2477111816406,-217.689453125,-159.1405029296875
2024-11-13 15:02:44.845 +0100,239,69243.61989791667,-0.007965087890625,-0.027618408203125,-1.000473022460938,69243.61119291667,-0.000221574999159202,-0.0002450108295306563,-0.001891909632831812,69243.61315491667,323.3265991210938,-217.6823425292969,-159.0841217041016
2024-11-13 15:02:44.855 +0100,240,69243.62984491666,-0.0067901611328125,-0.0280609130859375,-0.9974517822265625,69243.62114091667,-0.0003211772127542645,-0.003116431180387735,-0.002628539921715856,69243.62343891666,323.0458374023438,-217.7399444580078,-159.0866088867188
2024-11-13 15:02:44.865 +0100,241,69243.63979291667,-0.00628662109375,-0.026611328125,-0.9991912841796875,69243.63108791667,-0.000639424950350076,-0.003254915354773402,0.00143943855073303,69243.63372191667,323.1484375,-217.7661743164062,-159.0297393798828
2024-11-13 15:02:44.875 +0100,242,69243.64974091668,-0.0075225830078125,-0.02587890625,-1.00042724609375,69243.64103591668,0.000606934423558414,-0.002240783767774701,0.0003118561580777168,69243.64400491667,323.0255737304688,-217.7908325195312,-158.7088623046875
2024-11-13 15:02:44.885 +0100,243,69243.65968791668,-0.0085601806640625,-0.02630615234375,-0.9993438720703125,69243.65098391667,0.003010437358170748,-0.003064499469473958,-0.000257261359365657,69243.65428691667,323.1961059570312,-217.6467590332031,-158.8893737792969
2024-11-13 15:02:44.896 +0100,244,69243.66963591667,-0.0088958740234375,-0.0269927978515625,-0.9994659423828125,69243.66093091667,-0.002467152429744601,-0.003142530098557472,-0.0006138586322776973,69243.66456991667,323.3333129882812,-217.5939483642578,-158.7949523925781
2024-11-13 15:02:44.905 +0100,245,69243.67958391667,-0.0081634521484375,-0.027587890625,-1.00079345703125,69243.67087891667,-0.0004476773901842535,-0.000740625080652535,-0.0008253136184066534,69243.67485291667,323.245849609375,-217.4825439453125,-158.8118896484375
2024-11-13 15:02:44.915 +0100,246,69243.689531375,-0.0067291259765625,-0.027374267578125,-0.998687744140625,69243.68082691666,0.0003984088834840804,-0.0003355582884978503,0.002601109445095062,69243.68513591668,323.2304077148438,-217.6077575683594,-159.1259613037109
2024-11-13 15:02:44.925 +0100,247,69243.69947937501,-0.0078125,-0.0269317626953125,-0.9976654052734375,69243.69077437501,0.002796319080516696,-0.005830458365380764,0.0001488707057433203,69243.69542037501,323.2663879394531,-217.6387481689453,-158.8217010498047
2024-11-13 15:02:44.935 +0100,248,69243.709427375,-0.010162353515625,-0.0267333984375,-0.9992218017578125,69243.700722375,-1.118527688959148e-05,-0.002546514617279172,-1.917476038215682e-05,69243.705703375,323.310302734375,-217.6938781738281,-158.9610137939453
2024-11-13 15:02:44.951 +0100,249,69243.71937437501,-0.0077667236328125,-0.0272979736328125,-0.999847412109375,69243.710670375,0.0006021407316438854,-0.002119343494996428,0.0002878876985050738,69243.71598737501,323.1635131835938,-217.5559692382812,-158.8062896728516
2024-11-13 15:02:44.955 +0100,250,69243.729322375,-0.0079803466796875,-0.0266265869140625,-0.999847412109375,69243.720617375,-0.0004492752777878195,0.001263403566554189,-0.001284975209273398,69243.72627137501,323.194580078125,-217.4977264404297,-159.2919769287109
2024-11-13 15:02:44.965 +0100,251,69243.73927037501,-0.0077056884765625,-0.0278778076171875,-0.9995574951171875,69243.73056537501,-0.0006567355012521148,-0.003924966789782047,0.0002173139364458621,69243.736555375,323.2138061523438,-217.6106414794922,-158.9058532714844
2024-11-13 15:02:44.975 +0100,252,69243.74921737501,-0.00787353515625,-0.026947021484375,-0.9992218017578125,69243.740513375,-0.0004428836982697248,0.0005765743553638458,-0.001190965645946562,69243.746839375,323.2359619140625,-217.6996917724609,-159.1883087158203
2024-11-13 15:02:44.984 +0100,253,69243.759165375,-0.0086517333984375,-0.0264434814453125,-0.999237060546875,69243.750460375,-0.001517469179816544,-0.005363606382161379,-0.002431732369586825,69243.757122375,323.2315673828125,-217.6758880615234,-159.1532897949219
2024-11-13 15:02:44.994 +0100,254,69243.769113375,-0.008514404296875,-0.0267181396484375,-0.9988555908203125,69243.760408375,0.004010720644146204,-0.004650678019970655,-0.003414438804611564,69243.767406375,323.4205322265625,-217.5897521972656,-159.1195831298828
2024-11-13 15:02:45.005 +0100,255,69243.779060375,-0.007171630859375,-0.0276641845703125,-0.999969482421875,69243.77035637501,0.002547313459217548,-0.001675660954788327,0.0003802994033321738,69243.777688375,322.9885864257812,-217.7612152099609,-158.8509521484375
2024-11-13 15:02:45.014 +0100,256,69243.78900837501,-0.007781982421875,-0.027435302734375,-1.000946044921875,69243.78030337501,0.002296976512297988,-0.004685299471020699,-0.0002063949796138331,69243.787969375,323.3813781738281,-217.6796264648438,-158.8930206298828
2024-11-13 15:02:45.024 +0100,257,69243.798956375,-0.0067291259765625,-0.0274200439453125,-1.0003662109375,69243.790251375,0.0009598032338544726,-0.0002849582233466208,-0.0009784454014152288,69243.798253375,323.0990600585938,-217.6106567382812,-159.0179595947266
2024-11-13 15:02:45.034 +0100,258,69243.808903375,-0.0093994140625,-0.0260772705078125,-1.000015258789062,69243.80019937501,0.0008181231096386909,-0.001393632148392498,0.0008298410102725029,69243.80853537501,323.5505981445312,-217.4418334960938,-158.8580627441406
2024-11-13 15:02:45.044 +0100,259,69243.81885137501,-0.008209228515625,-0.0274505615234375,-0.9991302490234375,69243.81014637501,6.151902198325843e-05,-0.0006119944155216217,-0.0009451558580622077,69243.81881737501,322.892578125,-217.777099609375,-158.9049224853516
2024-11-13 15:02:45.054 +0100,260,69243.828799375,-0.007720947265625,-0.027313232421875,-0.999969482421875,69243.820094375,0.0001853560097515583,-0.002015480305999517,-0.0006013417732901871,69243.829099375,323.111572265625,-217.7806396484375,-158.7796020507812
2024-11-13 15:02:45.072 +0100,261,69243.83874637501,-0.0083465576171875,-0.0265045166015625,-0.99908447265625,69243.830042375,0.0003320961841382086,-0.0008109325426630676,-0.002017344580963254,69243.83938237501,322.9295654296875,-217.7448272705078,-159.0604095458984
2024-11-13 15:02:45.074 +0100,262,69243.848694375,-0.0073699951171875,-0.027374267578125,-0.9990386962890625,69243.839989375,0.001157143502496183,-0.002258893335238099,-0.002419481752440333,69243.84966437501,323.3731689453125,-217.5693817138672,-159.0332641601562
2024-11-13 15:02:45.084 +0100,263,69243.85864237501,-0.0085296630859375,-0.0280914306640625,-0.9998016357421875,69243.84993737501,0.001213602488860488,-0.002196841640397906,-0.002104163635522127,69243.85994737501,322.872314453125,-217.8076324462891,-158.9824523925781
2024-11-13 15:02:45.094 +0100,264,69243.86858937501,-0.008819580078125,-0.0269927978515625,-0.9998321533203125,69243.859885375,0.003784351982176304,-0.001188036170788109,-0.002340119564905763,69243.87022937501,323.11767578125,-217.6802062988281,-158.7662506103516
2024-11-13 15:02:45.104 +0100,265,69243.878537375,-0.008575439453125,-0.0264129638671875,-0.9991455078125,69243.869832375,0.0005201153689995408,-0.001853293739259243,0.000248472933890298,69243.88051237501,322.9546508789062,-217.7916717529297,-158.8787689208984
2024-11-13 15:02:45.114 +0100,266,69243.88848537501,-0.0084686279296875,-0.02764892578125,-0.9986724853515625,69243.87978037501,-0.0003973436250817031,-0.00159922824241221,0.0004266384057700634,69243.89079437501,323.2008056640625,-217.5838165283203,-158.7062377929688
2024-11-13 15:02:45.129 +0100,267,69243.898432375,-0.00640869140625,-0.0267486572265625,-1.000091552734375,69243.889728375,0.00132598786149174,-0.002572081051766872,0.0003233077586628497,69243.90107737501,322.9360656738281,-217.8487548828125,-158.8044281005859
2024-11-13 15:02:45.134 +0100,268,69243.90838037501,-0.008087158203125,-0.0286865234375,-0.9997100830078125,69243.89967537501,0.002734001260250807,-0.003380616661161184,-0.0005909554311074317,69243.91135937501,323.1524658203125,-217.8696899414062,-158.9203186035156
2024-11-13 15:02:45.144 +0100,269,69243.918328375,-0.00677490234375,-0.027191162109375,-0.9980926513671875,69243.909623375,-0.002641323255375028,-0.004485296085476875,-0.0006399576086550951,69243.91135937501,323.1524658203125,-217.8696899414062,-158.9203186035156
2024-11-13 15:02:45.154 +0100,270,69243.928275375,-0.0081787109375,-0.0282135009765625,-1.000625610351562,69243.91957137501,0.001642637769691646,-0.0006828344776295125,-0.001535046030767262,69243.92164137501,322.9700622558594,-217.6904754638672,-159.08837890625
2024-11-13 15:02:45.164 +0100,271,69243.93822337501,-0.008209228515625,-0.02716064453125,-1.001052856445312,69243.92951837501,0.001483913394622505,-0.001495098578743637,0.0001728391507640481,69243.931925375,323.183349609375,-217.8522338867188,-158.7230377197266
2024-11-13 15:02:45.173 +0100,272,69243.948171375,-0.008392333984375,-0.026214599609375,-1.000030517578125,69243.939466375,0.002894589677453041,-0.002001365646719933,-0.003197391284629703,69243.942207375,323.1075439453125,-217.8986053466797,-158.9138946533203
2024-11-13 15:02:45.185 +0100,273,69243.958118375,-0.008270263671875,-0.02655029296875,-0.9996185302734375,69243.94941437501,0.002424275502562523,-0.0007225155713967979,0.0005001416429877281,69243.952490375,323.1633605957031,-217.8764190673828,-158.9974670410156
2024-11-13 15:02:45.197 +0100,274,69243.968066375,-0.0090179443359375,-0.0261688232421875,-0.99945068359375,69243.959361375,0.0008069378091022372,-0.002554504200816154,0.001139033935032785,69243.96277337501,322.8299560546875,-217.8150787353516,-159.0302276611328
2024-11-13 15:02:45.203 +0100,275,69243.97801437501,-0.0075225830078125,-0.02734375,-1.000457763671875,69243.96930937501,0.001528121763840318,-0.001750495750457048,2.130528855559533e-06,69243.97305637501,322.8905639648438,-217.8499450683594,-159.1912689208984
2024-11-13 15:02:45.213 +0100,276,69243.98796137501,-0.00775146484375,-0.028472900390625,-0.998748779296875,69243.979257375,0.0009009473724290729,-0.003114300547167659,-0.002409628126770258,69243.98334037501,323.1983032226562,-217.8695068359375,-158.7349090576172
2024-11-13 15:02:45.223 +0100,277,69243.997909375,-0.0087127685546875,-0.02734375,-0.999359130859375,69243.989204375,0.003488208400085568,-0.0007728493656031787,-0.0003368898760527372,69243.993624375,323.0617980957031,-217.8754425048828,-158.8512420654297
2024-11-13 15:02:45.233 +0100,278,69244.00785737501,-0.007598876953125,-0.0274505615234375,-1.000396728515625,69243.99915237501,0.00261788722127676,-0.00353348208591342,-0.00112944666761905,69244.003906375,323.0473327636719,-217.8656768798828,-158.9899291992188
2024-11-13 15:02:45.251 +0100,279,69244.01780437501,-0.0074920654296875,-0.0267181396484375,-1.000396728515625,69244.009100375,0.004733236040920019,-0.002388589084148407,-0.0011837751371786,69244.014190375,322.8084716796875,-217.9944763183594,-158.9091796875
2024-11-13 15:02:45.253 +0100,280,69244.027752375,-0.0080108642578125,-0.026519775390625,-1.00048828125,69244.019047375,0.001038899179548025,1.145159239968052e-05,-0.002645317930728197,69244.024473375,323.0916137695312,-218.0136566162109,-159.1300354003906
2024-11-13 15:02:45.263 +0100,281,69244.037700375,-0.0077972412109375,-0.0265960693359375,-0.9991912841796875,69244.028995375,0.001693770405836403,-0.004235757514834404,-0.003538542194291949,69244.03475637501,322.8685607910156,-218.0215301513672,-158.7912139892578
2024-11-13 15:02:45.273 +0100,282,69244.047647375,-0.0064849853515625,-0.02777099609375,-0.9979095458984375,69244.03894337501,0.002285791095346212,-0.002605636836960912,-0.0009004147723317146,69244.045038375,323.1449584960938,-217.9165191650391,-159.0927276611328
2024-11-13 15:02:45.283 +0100,283,69244.05759537501,-0.0066680908203125,-0.0273895263671875,-1.000595092773438,69244.04889037501,0.0009747169679030776,-0.001738511491566896,-0.00122105935588479,69244.05532137501,322.9228515625,-217.8740081787109,-159.0696716308594
2024-11-13 15:02:45.293 +0100,284,69244.067543375,-0.0093841552734375,-0.0275421142578125,-0.9994049072265625,69244.058838375,0.001241565681993961,-1.731054726406001e-05,-0.0005616606795229018,69244.065605375,322.8949584960938,-217.8708343505859,-159.3205871582031
2024-11-13 15:02:45.306 +0100,285,69244.077490375,-0.0085906982421875,-0.025726318359375,-0.9979705810546875,69244.06878637501,-0.00145621644333005,-0.0006889597862027586,-0.002414155518636107,69244.075889375,323.0544128417969,-217.8681640625,-159.1063385009766
2024-11-13 15:02:45.313 +0100,286,69244.08743837501,-0.00665283203125,-0.028350830078125,-0.999664306640625,69244.078733375,-9.933590627042577e-05,-0.002363555366173387,-0.002161954063922167,69244.08617337501,323.0931396484375,-217.8652191162109,-158.9977722167969
2024-11-13 15:02:45.323 +0100,287,69244.09738637501,-0.0087127685546875,-0.0271453857421875,-0.9994659423828125,69244.098629375,0.000966727442573756,-0.002408030210062861,-0.0001012001230265014,69244.09645737501,323.0112609863281,-217.7920989990234,-159.0847473144531
2024-11-13 15:02:45.333 +0100,288,69244.10733337501,-0.009033203125,-0.0262908935546875,-1.00164794921875,69244.098629375,0.000966727442573756,-0.002408030210062861,-0.0001012001230265014,69244.106741375,323.2461853027344,-217.8997650146484,-158.9071502685547
2024-11-13 15:02:45.343 +0100,289,69244.117281375,-0.007904052734375,-0.0255126953125,-1.000717163085938,69244.108576375,0.001413605874404311,-0.0009488842915743589,-0.0001105211849790066,69244.117025375,323.00634765625,-217.95166015625,-158.8307800292969
2024-11-13 15:02:45.353 +0100,290,69244.12722937501,-0.0081787109375,-0.02606201171875,-0.997894287109375,69244.11852437501,-0.001153681427240372,-0.001891643274575472,-0.003497795667499304,69244.12730937501,323.2846069335938,-217.7741546630859,-158.8962097167969
2024-11-13 15:02:45.372 +0100,291,69244.13717637501,-0.0059051513671875,-0.0266571044921875,-0.999481201171875,69244.128472375,0.0004873584839515388,-0.002230663783848286,-0.0017126789316535,69244.13759337501,323.0898132324219,-217.8848266601562,-159.0691528320312
2024-11-13 15:02:45.373 +0100,292,69244.147124375,-0.00701904296875,-0.0280914306640625,-0.9994659423828125,69244.138419375,0.0003041329910047352,-0.001758751575835049,0.002474076580256224,69244.14787637501,323.2079772949219,-217.7828826904297,-158.8708953857422
2024-11-13 15:02:45.382 +0100,293,69244.157072375,-0.0090484619140625,-0.0258026123046875,-0.99993896484375,69244.148367375,0.001327319419942796,-0.002318814396858215,-0.0009693906176835299,69244.158159375,322.9998779296875,-217.7849273681641,-158.5708465576172
2024-11-13 15:02:45.392 +0100,294,69244.167019375,-0.0085601806640625,-0.02783203125,-1.000259399414062,69244.15831537501,0.002619485137984157,-0.001086303382180631,0.001601891359314322,69244.168442375,323.29296875,-217.7457275390625,-158.9080047607422
2024-11-13 15:02:45.402 +0100,295,69244.17696737501,-0.0066070556640625,-0.0271148681640625,-0.9980926513671875,69244.16826237501,-0.001268463674932718,-0.001684183022007346,-0.002358229132369161,69244.178726375,323.025390625,-217.9850311279297,-158.9525604248047
2024-11-13 15:02:45.412 +0100,296,69244.186915375,-0.0074920654296875,-0.0262908935546875,-0.9998779296875,69244.178210375,-0.0001275654212804511,-0.003227751236408949,-0.003600860014557838,69244.189009375,323.2999572753906,-217.8292541503906,-158.9062347412109
2024-11-13 15:02:45.422 +0100,297,69244.196862375,-0.008087158203125,-0.0278472900390625,-1.00006103515625,69244.18815837501,0.0007539408979937434,-0.003133208956569433,-0.002011219272390008,69244.199293375,322.9855346679688,-217.9937438964844,-158.9482116699219
2024-11-13 15:02:45.433 +0100,298,69244.20681037501,-0.007904052734375,-0.02850341796875,-0.9988250732421875,69244.19810537501,0.000794420950114727,-0.002473277738317847,-0.004338555503636599,69244.209577375,323.3152160644531,-217.710693359375,-158.8906402587891
2024-11-13 15:02:45.442 +0100,299,69244.216758375,-0.0092926025390625,-0.0268096923828125,-0.998077392578125,69244.208053375,0.0009126652730628848,-0.0005185174522921443,0.0004234426014591008,69244.21986137501,323.1807250976562,-217.873291015625,-158.9679870605469
2024-11-13 15:02:45.452 +0100,300,69244.22670537501,-0.007720947265625,-0.0269622802734375,-1.000274658203125,69244.218001375,0.001114532933570445,-0.003609115956351161,-0.001476456527598202,69244.21986137501,323.1807250976562,-217.873291015625,-158.9679870605469
2024-11-13 15:02:45.462 +0100,301,69244.236653375,-0.0067291259765625,-0.026947021484375,-0.999542236328125,69244.227948375,0.002415487077087164,-0.005822735372930765,-0.002399241784587502,69244.230144375,323.2385864257812,-217.8591156005859,-158.7721405029297
2024-11-13 15:02:45.472 +0100,302,69244.24660137501,-0.00848388671875,-0.02734375,-0.9990386962890625,69244.23789637501,0.002978745615109801,-0.0007257114048115909,-0.001845038030296564,69244.24042837501,323.1820068359375,-217.9063873291016,-158.7733612060547
2024-11-13 15:02:45.482 +0100,303,69244.25654837501,-0.006317138671875,-0.027191162109375,-0.9981536865234375,69244.247844375,0.0006330333999358118,-0.002737995935603976,-0.0001874865411082283,69244.25071237501,323.1978149414062,-217.8724670410156,-159.0005187988281
2024-11-13 15:02:45.496 +0100,304,69244.266496375,-0.00921630859375,-0.0257110595703125,-1.000167846679688,69244.257791375,0.0005608617211692035,-0.001780589460395277,-0.001692438847385347,69244.260996375,323.1182861328125,-217.8268127441406,-158.7214813232422
2024-11-13 15:02:45.502 +0100,305,69244.27644437501,-0.00775146484375,-0.026275634765625,-0.99896240234375,69244.26773937501,0.001584048150107265,-0.00253426400013268,-0.003041596151888371,69244.27128137501,323.3687133789062,-217.6267395019531,-158.9352264404297
2024-11-13 15:02:45.512 +0100,306,69244.286391375,-0.008697509765625,-0.0268096923828125,-0.999542236328125,69244.277687375,0.001663410454057157,-0.002282861620187759,-0.002095641335472465,69244.28156437501,323.0354614257812,-217.7590179443359,-158.8415985107422
2024-11-13 15:02:45.522 +0100,307,69244.29633937501,-0.0072479248046875,-0.027313232421875,-0.999908447265625,69244.28763437501,0.00133850472047925,-0.002186455298215151,-0.001138501334935427,69244.291847375,323.0662841796875,-217.8023986816406,-158.8718109130859
2024-11-13 15:02:45.532 +0100,308,69244.306287375,-0.0076751708984375,-0.0276031494140625,-1.000991821289062,69244.297582375,0.002574744168668985,-0.001912149600684643,-0.002522013615816832,69244.302130375,323.0503845214844,-217.8710327148438,-158.9772644042969
2024-11-13 15:02:45.542 +0100,309,69244.31623537501,-0.00872802734375,-0.0269775390625,-1.00091552734375,69244.30753037501,0.001537176547572017,-0.00333241350017488,-0.0003605920064728707,69244.312412375,323.2281799316406,-217.7838897705078,-158.638916015625
2024-11-13 15:02:45.552 +0100,310,69244.32618237501,-0.00714111328125,-0.026947021484375,-0.9986572265625,69244.317478375,-0.0004825647920370102,-0.001571797649376094,-0.0001395496365148574,69244.322695375,323.2915649414062,-217.8376312255859,-158.9940795898438
2024-11-13 15:02:45.562 +0100,311,69244.336130375,-0.0071563720703125,-0.02496337890625,-0.9990234375,69244.327425375,-0.001472461735829711,-0.001771268434822559,-0.0008383630774915218,69244.33297837501,323.2604370117188,-217.8106536865234,-158.7378387451172
2024-11-13 15:02:45.571 +0100,312,69244.34607837501,-0.007537841796875,-0.0269927978515625,-0.9987945556640625,69244.337373375,-0.001243696198798716,-0.001647697761654854,-0.001632517785765231,69244.343261375,323.2359619140625,-217.8082275390625,-159.0262756347656
2024-11-13 15:02:45.581 +0100,313,69244.356025375,-0.007904052734375,-0.0272216796875,-0.9991607666015625,69244.34732137501,-0.0002442118711769581,-0.00219497736543417,-4.154531416133977e-05,69244.353544375,323.2032165527344,-217.8209991455078,-158.7567291259766
2024-11-13 15:02:45.591 +0100,314,69244.36597337501,-0.0090179443359375,-0.0269927978515625,-0.9994049072265625,69244.35726837501,0.004577973857522011,-0.003165965899825096,-0.002631735755130649,69244.36382737501,323.1895141601562,-217.8322296142578,-158.93798828125
2024-11-13 15:02:45.601 +0100,315,69244.375921375,-0.006744384765625,-0.0269775390625,-1.000473022460938,69244.367216375,0.002738794777542353,-0.003099919529631734,-0.002311357529833913,69244.37411037501,322.9766540527344,-217.8054046630859,-158.5616455078125
2024-11-13 15:02:45.613 +0100,316,69244.385868375,-0.0072021484375,-0.02703857421875,-1.000930786132812,69244.37716437501,-0.001203482504934072,0.001338238478638232,0.0005001416429877281,69244.38439437501,323.2892150878906,-217.6510314941406,-158.7206420898438
2024-11-13 15:02:45.621 +0100,317,69244.39581637501,-0.0088653564453125,-0.02679443359375,-0.9988555908203125,69244.38711137501,0.002066346583887935,-0.001904160133562982,-0.0001158475060947239,69244.394678375,323.19189453125,-217.6726837158203,-158.8692779541016
2024-11-13 15:02:45.631 +0100,318,69244.405764375,-0.0069732666015625,-0.027252197265625,-0.9987030029296875,69244.397059375,-0.001395496423356235,-0.002830141223967075,-0.0009464874165132642,69244.40496137501,323.3636474609375,-217.7135162353516,-158.7634887695312
2024-11-13 15:02:45.641 +0100,319,69244.415711375,-0.0074615478515625,-0.0279541015625,-0.9972686767578125,69244.407007375,-0.0009070726810023189,-0.001598961884155869,-0.001340102637186646,69244.41524437501,323.1267700195312,-217.7266387939453,-158.8345489501953
2024-11-13 15:02:45.651 +0100,320,69244.425659375,-0.007720947265625,-0.02703857421875,-0.998016357421875,69244.416954375,0.001490304945036769,-0.003090598387643695,-0.004203266929835081,69244.42552837501,323.3554077148438,-217.7470550537109,-158.7335205078125
2024-11-13 15:02:45.661 +0100,321,69244.43560737501,-0.0080718994140625,-0.0276336669921875,-0.999786376953125,69244.42690237501,-3.249056680942886e-05,-0.002773948479443789,-0.002138252137228847,69244.435810375,323.1603393554688,-217.7387542724609,-158.8126068115234
2024-11-13 15:02:45.671 +0100,322,69244.44555437501,-0.008026123046875,-0.02667236328125,-1.00042724609375,69244.436850375,0.0009494169498793781,-0.001503620762377977,-0.002585130510851741,69244.44609337501,323.081298828125,-217.9360504150391,-158.929931640625
2024-11-13 15:02:45.681 +0100,323,69244.455502375,-0.0093841552734375,-0.026214599609375,-0.9990081787109375,69244.446797375,0.0009986853692680597,-0.004218713380396366,0.0003075950953643769,69244.456376375,323.0734252929688,-217.8337249755859,-158.6513824462891
2024-11-13 15:02:45.691 +0100,324,69244.46545037501,-0.008331298828125,-0.0262908935546875,-1.001251220703125,69244.45674537501,0.001356614287942648,-0.002831206424161792,-0.001388039556331933,69244.46666037501,323.1871948242188,-217.8133544921875,-159.1111602783203
2024-11-13 15:02:45.701 +0100,325,69244.475397375,-0.0081939697265625,-0.0276031494140625,-0.9998779296875,69244.466693375,0.0002615224220789969,-0.001207743538543582,-0.00330258603207767,69244.476944375,322.9998474121094,-217.7745819091797,-158.7306823730469
2024-11-13 15:02:45.711 +0100,326,69244.48534537501,-0.0092620849609375,-0.02691650390625,-0.999176025390625,69244.47664037501,0.002422411227598786,-0.001844239071942866,-0.001514806062914431,69244.48722737501,323.2096557617188,-217.765869140625,-158.8827667236328
2024-11-13 15:02:45.721 +0100,327,69244.495293375,-0.0085296630859375,-0.0271759033203125,-0.9989013671875,69244.486588375,0.001342765754088759,0.00020985709852539,0.0005185174522921443,69244.497511375,323.0281372070312,-217.8745727539062,-158.9244689941406
2024-11-13 15:02:45.733 +0100,328,69244.505240375,-0.009552001953125,-0.02716064453125,-1.000381469726562,69244.49653637501,0.002644785214215517,-0.003954527899622917,-0.0006799050024710596,69244.507795375,323.1315612792969,-217.8551177978516,-158.7466430664062
2024-11-13 15:02:45.741 +0100,329,69244.51518837501,-0.0075225830078125,-0.0271453857421875,-1.000640869140625,69244.50648337501,0.004310858901590109,-0.002467418788000941,-0.001000283285975456,69244.51807837501,323.1046142578125,-218.0380706787109,-159.0189971923828
2024-11-13 15:02:45.750 +0100,330,69244.525136375,-0.0087432861328125,-0.0274505615234375,-0.9997711181640625,69244.516431375,0.001076183398254216,-0.002669020090252161,0.0004303668392822146,69244.51807837501,323.1046142578125,-218.0380706787109,-159.0189971923828
2024-11-13 15:02:45.760 +0100,331,69244.535083375,-0.008056640625,-0.026611328125,-0.999359130859375,69244.52637937501,0.002668487373739481,-0.002214418491348624,-0.0005155879771336913,69244.52836137501,323.3651123046875,-217.9406585693359,-159.2388000488281
2024-11-13 15:02:45.770 +0100,332,69244.545031375,-0.0072021484375,-0.0260162353515625,-0.99945068359375,69244.536326375,-0.0001363538467558101,-0.00102425180375576,-0.001266865758225322,69244.538646375,322.9740905761719,-217.8179168701172,-158.8671569824219
2024-11-13 15:02:45.780 +0100,333,69244.55497937501,-0.0060882568359375,-0.027862548828125,-0.999664306640625,69244.54627437501,0.002085787709802389,-0.002074336167424917,-0.001880990690551698,69244.548929375,323.13916015625,-218.0294494628906,-158.8251800537109
2024-11-13 15:02:45.796 +0100,334,69244.56492637501,-0.0063018798828125,-0.02734375,-0.998748779296875,69244.556222375,0.0006471481174230576,-0.002889529801905155,0.0003025351034011692,69244.55921237501,323.0223999023438,-217.9484100341797,-158.8369445800781
2024-11-13 15:02:45.800 +0100,335,69244.574874375,-0.0071868896484375,-0.0261688232421875,-0.9987335205078125,69244.566169375,0.001606418751180172,-0.002884469693526626,-0.003066097386181355,69244.569496375,323.2103881835938,-217.9088592529297,-158.83203125
2024-11-13 15:02:45.810 +0100,336,69244.58482237501,-0.0091094970703125,-0.02752685546875,-0.9993743896484375,69244.57611737501,-4.76705827168189e-05,-0.002393915550783277,0.0002295644808327779,69244.579780375,322.880859375,-218.0973510742188,-158.8086700439453
2024-11-13 15:02:45.820 +0100,337,69244.59476937501,-0.007415771484375,-0.0272979736328125,-0.9998626708984375,69244.586065375,0.001323857344686985,-0.002403236459940672,-0.001768072601407766,69244.590063375,323.1187744140625,-217.9107971191406,-158.7022705078125
2024-11-13 15:02:45.830 +0100,338,69244.604717375,-0.0060577392578125,-0.027984619140625,-0.9989471435546875,69244.596012375,0.002345446031540632,-0.0009653958841226995,-3.595267480704933e-05,69244.600347375,322.9063110351562,-217.7016296386719,-158.6728210449219
2024-11-13 15:02:45.840 +0100,339,69244.614665375,-0.0074920654296875,-0.027557373046875,-1.000244140625,69244.605960375,0.0007198524544946849,-0.00114942027721554,-0.0006157228490337729,69244.61063137501,323.1199340820312,-217.8150787353516,-158.6911773681641
2024-11-13 15:02:45.852 +0100,340,69244.624612375,-0.00726318359375,-0.02655029296875,-0.999847412109375,69244.61590837501,-0.0002170476218452677,-0.001190699287690222,-0.00236195744946599,69244.62091337501,322.9466552734375,-217.9452667236328,-158.7359161376953
2024-11-13 15:02:45.860 +0100,341,69244.63456037501,-0.0079345703125,-0.0277557373046875,-1.000167846679688,69244.62585537501,-0.00145222176797688,-0.0009358347742818296,-0.001843173755332828,69244.631196375,323.1620788574219,-217.8634033203125,-158.60205078125
2024-11-13 15:02:45.870 +0100,342,69244.644508375,-0.0074005126953125,-0.0264434814453125,-0.998931884765625,69244.635803375,0.0006058691651560366,-0.0003978762542828918,6.125270738266408e-05,69244.641479375,323.1517333984375,-217.8683776855469,-158.7286071777344
2024-11-13 15:02:45.880 +0100,343,69244.654455375,-0.0081329345703125,-0.026611328125,-0.998077392578125,69244.64575137501,0.002274872269481421,-0.002259958535432816,-0.003152916440740228,69244.651763375,323.1839904785156,-217.8710021972656,-158.8819885253906
2024-11-13 15:02:45.890 +0100,344,69244.66440337501,-0.0083160400390625,-0.0262908935546875,-0.9998016357421875,69244.65569837501,0.001612544059753418,-0.002917759353294969,-0.002230663783848286,69244.66204737501,323.07373046875,-217.8173980712891,-158.7454528808594
2024-11-13 15:02:45.900 +0100,345,69244.674351375,-0.0066680908203125,-0.0274505615234375,-0.999481201171875,69244.66564637501,0.003058906877413392,-0.002668753731995821,-0.002063150983303785,69244.672331375,323.0964965820312,-217.9387512207031,-158.6501312255859
2024-11-13 15:02:45.912 +0100,346,69244.68429837501,-0.0066070556640625,-0.0264892578125,-0.99908447265625,69244.675594375,-0.0005241101025603712,-0.002561161993071437,0.001388572156429291,69244.68261637501,323.125732421875,-217.8718872070312,-158.6751556396484
2024-11-13 15:02:45.920 +0100,347,69244.694246125,-0.007080078125,-0.025634765625,-1.000167846679688,69244.685541375,0.0008346347021870315,-0.002273274352774024,-0.001282844692468643,69244.69290012501,323.1634826660156,-217.8263244628906,-158.9284820556641
2024-11-13 15:02:45.930 +0100,348,69244.70419412501,-0.008941650390625,-0.0261688232421875,-1.001312255859375,69244.69548912501,0.001692705205641687,-0.002157160546630621,-0.001287105726078153,69244.70318512501,323.0802612304688,-217.9659271240234,-158.7381591796875
2024-11-13 15:02:45.939 +0100,349,69244.714141125,-0.0086212158203125,-0.0280303955078125,-1.00042724609375,69244.705437125,-0.0006996124284341931,-0.001626658835448325,-0.0002849582233466208,69244.71346912501,323.0612182617188,-217.8198547363281,-158.6663970947266
2024-11-13 15:02:45.949 +0100,350,69244.72408912501,-0.00836181640625,-0.026123046875,-0.9994659423828125,69244.71538412501,0.001562210265547037,-0.0008578042034059763,-0.002581934677436948,69244.72375212501,323.0693054199219,-217.9233551025391,-158.6390533447266
2024-11-13 15:02:45.959 +0100,351,69244.734037125,-0.008544921875,-0.026519775390625,-0.9985504150390625,69244.725332125,0.0003145193331874907,-0.001201618229970336,0.0002540655550546944,69244.734035125,322.9513549804688,-217.9433441162109,-158.6271362304688
2024-11-13 15:02:45.969 +0100,352,69244.74398512501,-0.0077362060546875,-0.02777099609375,-1.0009765625,69244.73528012501,0.002624811604619026,-0.002407497493550181,-0.000300404557492584,69244.74431912501,323.0628662109375,-217.8324737548828,-158.9803009033203
2024-11-13 15:02:45.979 +0100,353,69244.75393212501,-0.008087158203125,-0.027557373046875,-0.9992523193359375,69244.745228125,0.002292715478688478,-0.005309544038027525,-0.0008873652550391853,69244.75460312501,323.0428466796875,-217.9347534179688,-158.9202117919922
2024-11-13 15:02:45.989 +0100,354,69244.763880125,-0.00885009765625,-0.0268402099609375,-0.9987030029296875,69244.755175125,0.0006599313346669078,-0.0007667240570299327,0.0007627293234691024,69244.76488812501,323.1927490234375,-217.9558868408203,-158.9423675537109
2024-11-13 15:02:45.999 +0100,355,69244.77382812501,-0.008880615234375,-0.0262603759765625,-0.9984893798828125,69244.76512312501,0.002629871480166912,-0.004229099955409765,0.0004098604840692133,69244.77517212501,323.0486450195312,-217.8246765136719,-158.7725677490234
2024-11-13 15:02:46.009 +0100,356,69244.783775125,-0.007659912109375,-0.0263824462890625,-0.9992523193359375,69244.775071125,0.002057824516668916,-0.005682120565325022,-0.002575809368863702,69244.785456125,323.2154541015625,-217.8951416015625,-158.9049072265625
2024-11-13 15:02:46.019 +0100,357,69244.79372312501,-0.00946044921875,-0.0265960693359375,-0.999298095703125,69244.78501812501,-0.0001776328426785767,-0.003589142113924026,0.000180828632437624,69244.79573912501,323.0514831542969,-217.8363494873047,-158.9486846923828
2024-11-13 15:02:46.031 +0100,358,69244.803671125,-0.0077362060546875,-0.027374267578125,-1.0001220703125,69244.794966125,-0.0004005394293926656,-0.002037850907072425,0.0004785700584761798,69244.806023125,323.12939453125,-217.8295135498047,-158.6391754150391
2024-11-13 15:02:46.039 +0100,359,69244.813618125,-0.0053863525390625,-0.0264434814453125,-0.9994964599609375,69244.80491412501,-0.001539307064376771,-0.003179281717166305,-0.0008756473544053733,69244.816307125,323.01220703125,-218.0207672119141,-158.884521484375
2024-11-13 15:02:46.049 +0100,360,69244.82356612501,-0.0077667236328125,-0.0263214111328125,-1.000762939453125,69244.81486112501,0.000391218374716118,-0.002242914168164134,-0.0003211772127542645,69244.826592125,323.1333618164062,-217.8419647216797,-158.952880859375
2024-11-13 15:02:46.059 +0100,361,69244.833514125,-0.007720947265625,-0.025909423828125,-1.000137329101562,69244.824809125,0.002637861063703895,-0.002027198206633329,0.0004063983797095716,69244.826592125,323.1333618164062,-217.8419647216797,-158.952880859375
2024-11-13 15:02:46.069 +0100,362,69244.843461125,-0.007720947265625,-0.0272979736328125,-1.000534057617188,69244.83475712501,0.0001669802004471421,-0.004661863669753075,0.0001781654718797654,69244.83687512501,323.022216796875,-217.9368286132812,-159.0644683837891
2024-11-13 15:02:46.079 +0100,363,69244.853409125,-0.007781982421875,-0.027069091796875,-1.0010986328125,69244.844704125,0.0002671150432433933,-0.0006889597862027586,0.0002796319022309035,69244.84715812501,323.15380859375,-218.0205841064453,-158.9281311035156
2024-11-13 15:02:46.089 +0100,364,69244.86335712501,-0.004913330078125,-0.027130126953125,-0.999969482421875,69244.85465212501,-0.0004450142150744796,-0.001871935906819999,0.001431449083611369,69244.857441125,323.0247192382812,-217.7470092773438,-158.8309478759766
2024-11-13 15:02:46.099 +0100,365,69244.87330412501,-0.006927490234375,-0.027008056640625,-0.9984893798828125,69244.864600125,-0.0005259743193164468,-0.002773149637505412,-0.001241565681993961,69244.867724125,323.27294921875,-217.9067230224609,-158.9014739990234
2024-11-13 15:02:46.109 +0100,366,69244.883252125,-0.0072479248046875,-0.02618408203125,-0.9996185302734375,69244.874547125,0.0004157194343861192,-0.0008636631537228823,-0.001050350721925497,69244.87800712501,323.1583251953125,-217.8390960693359,-158.7254333496094
2024-11-13 15:02:46.118 +0100,367,69244.89320012501,-0.0072479248046875,-0.0267486572265625,-1.000885009765625,69244.88449512501,-0.001652225153520703,-0.006208361126482487,0.0009329052991233766,69244.888290125,323.3562622070312,-217.7436370849609,-158.7301788330078
2024-11-13 15:02:46.129 +0100,368,69244.90314712501,-0.00665283203125,-0.0243682861328125,-0.9998016357421875,69244.894443125,0.00201840978115797,-0.002400306984782219,-0.001492968061938882,69244.89857412501,322.9971313476562,-217.9094085693359,-158.9537048339844
2024-11-13 15:02:46.138 +0100,369,69244.913095125,-0.0075225830078125,-0.027984619140625,-0.9985198974609375,69244.904390125,0.0009211873984895647,1.331580551777733e-05,-0.001582716591656208,69244.908857125,323.1615600585938,-217.7649078369141,-158.7485809326172
2024-11-13 15:02:46.152 +0100,370,69244.923043125,-0.008453369140625,-0.0280914306640625,-1.0008544921875,69244.914338125,0.001052747596986592,-0.002890595002099872,-0.002168345730751753,69244.91914112501,322.9946899414062,-217.9591522216797,-158.6625518798828
2024-11-13 15:02:46.158 +0100,371,69244.932990125,-0.008544921875,-0.0268096923828125,-1.0006103515625,69244.92428612501,-0.0004990763845853508,-0.001593369292095304,-0.0008045409340411425,69244.92942512501,323.3387451171875,-217.7228393554688,-158.7142944335938
2024-11-13 15:02:46.168 +0100,372,69244.94293812501,-0.0070648193359375,-0.0263824462890625,-1.000518798828125,69244.93423312501,0.0005581985460594296,-0.0005757753970101476,-0.00125008774921298,69244.939709125,323.0765075683594,-217.8825836181641,-158.8848114013672
2024-11-13 15:02:46.178 +0100,373,69244.952886125,-0.0075836181640625,-0.027008056640625,-1.00030517578125,69244.944181125,0.002262355294078588,-0.0009707222343422472,-0.001290035201236606,69244.949993125,323.2310791015625,-217.80859375,-158.4721069335938
2024-11-13 15:02:46.188 +0100,374,69244.962833125,-0.0083465576171875,-0.0269012451171875,-0.9998779296875,69244.95412912501,0.003091663587838411,-0.002172606764361262,-0.0009147958480753005,69244.96027712501,322.9929504394531,-217.881591796875,-158.9217224121094
2024-11-13 15:02:46.198 +0100,375,69244.972781125,-0.006805419921875,-0.02679443359375,-0.9992218017578125,69244.964076125,0.001540904981084168,-0.001245560473762453,-0.0003699130611494184,69244.970560125,323.1826782226562,-217.928466796875,-158.7039031982422
2024-11-13 15:02:46.212 +0100,376,69244.98272912501,-0.0069732666015625,-0.0258331298828125,-0.9991912841796875,69244.97402412501,0.001972337020561099,-0.004071440547704697,-0.002072738250717521,69244.980843125,323.2152709960938,-217.7747039794922,-159.0262908935547
2024-11-13 15:02:46.218 +0100,377,69244.992677125,-0.0067138671875,-0.02606201171875,-0.9996795654296875,69244.983972125,0.0008604673203080893,-0.002320412313565612,-0.0003792341449297965,69244.991127125,323.2518920898438,-217.7581939697266,-158.6010284423828
2024-11-13 15:02:46.228 +0100,378,69245.002624125,-0.0064849853515625,-0.027069091796875,-0.999298095703125,69244.99392012501,0.001148088718764484,-0.002348641632124782,-0.0001786981010809541,69245.001412125,323.2707824707031,-217.864501953125,-158.7516784667969
2024-11-13 15:02:46.238 +0100,379,69245.01257212501,-0.0074310302734375,-0.027008056640625,-1.001007080078125,69245.00386712501,0.0001677791442489251,-0.001287105726078153,-0.001936118118464947,69245.01169712501,323.1814880371094,-217.8440551757812,-158.7366027832031
2024-11-13 15:02:46.248 +0100,380,69245.022520125,-0.00738525390625,-0.0263519287109375,-1.000656127929688,69245.013815125,-0.001541703939437866,-0.003122290130704641,-0.0003968109958805144,69245.02198212501,323.0713500976562,-217.8292083740234,-158.7937469482422
2024-11-13 15:02:46.258 +0100,381,69245.032467125,-0.0085906982421875,-0.0260162353515625,-0.9989013671875,69245.02376312501,0.002167280530557036,-0.002839728724211454,-0.002216016408056021,69245.032265125,322.9678649902344,-217.9354400634766,-158.6207275390625
2024-11-13 15:02:46.271 +0100,382,69245.042415125,-0.0083770751953125,-0.0263824462890625,-1.000534057617188,69245.033710125,0.001094825565814972,-0.004625910893082619,-0.003844805527478456,69245.04254912501,322.8904418945312,-218.1394805908203,-158.7641754150391
2024-11-13 15:02:46.278 +0100,383,69245.05236312501,-0.007293701171875,-0.0258941650390625,-0.998626708984375,69245.04365812501,0.003200853243470192,-0.002359027974307537,-0.0001568601874168962,69245.052832125,323.0086059570312,-217.9058837890625,-158.6978759765625
2024-11-13 15:02:46.288 +0100,384,69245.06231012501,-0.005523681640625,-0.0266571044921875,-0.9999237060546875,69245.053606125,-0.000177100213477388,-0.004715126473456621,0.0009606021922081709,69245.063117125,323.1794128417969,-217.8890075683594,-158.7323760986328
2024-11-13 15:02:46.298 +0100,385,69245.072258125,-0.0076751708984375,-0.0274200439453125,-0.9996490478515625,69245.063553125,0.000945954816415906,-0.002341451123356819,-0.001162469852715731,69245.073401125,323.1061096191406,-217.915283203125,-158.6795196533203
2024-11-13 15:02:46.307 +0100,386,69245.08220612501,-0.0079193115234375,-0.0273895263671875,-0.99932861328125,69245.07350112501,0.0008780442294664681,-0.004508997779339552,0.0002410160814179108,69245.08368512501,323.1603088378906,-217.8855743408203,-158.7556915283203
2024-11-13 15:02:46.318 +0100,387,69245.09215312501,-0.007659912109375,-0.0276031494140625,-1.000320434570312,69245.083449125,-4.021373388241045e-05,-0.003565972670912743,-0.001758751575835049,69245.09396912501,322.9672241210938,-217.7738189697266,-158.4605560302734
2024-11-13 15:02:46.331 +0100,388,69245.102101125,-0.0072479248046875,-0.0289306640625,-1.00054931640625,69245.093396125,-0.0004090615548193455,-0.003209908027201891,-0.001564074540510774,69245.104251125,323.1841430664062,-217.7523345947266,-158.5757141113281
2024-11-13 15:02:46.337 +0100,389,69245.112049125,-0.007110595703125,-0.0284576416015625,-0.999176025390625,69245.103344125,0.00106579705607146,-0.003418699838221073,-0.001122256042435765,69245.114533125,323.1626281738281,-217.8099365234375,-158.62451171875
2024-11-13 15:02:46.347 +0100,390,69245.121996125,-0.0078125,-0.0265655517578125,-0.9990692138671875,69245.11329212501,0.002271942794322968,-0.001948901219293475,-0.001440237509086728,69245.12481612501,323.1361083984375,-218.0054779052734,-158.5912628173828
2024-11-13 15:02:46.358 +0100,391,69245.13194412501,-0.0077056884765625,-0.026519775390625,-1.000350952148438,69245.12323912501,0.0002537992550060153,-0.0001573928166180849,-0.000624777574557811,69245.13509712501,322.9259033203125,-218.0182189941406,-158.7272033691406
2024-11-13 15:02:46.367 +0100,392,69245.141892125,-0.005645751953125,-0.027313232421875,-1.000244140625,69245.133187125,0.001048486563377082,-0.003527090419083834,-0.003520965343341231,69245.13509712501,322.9259033203125,-218.0182189941406,-158.7272033691406
2024-11-13 15:02:46.377 +0100,393,69245.151839125,-0.0076141357421875,-0.0266571044921875,-0.998809814453125,69245.14313512501,0.001263137324713171,-0.0007544735562987626,-0.001936650718562305,69245.14538112501,323.2514343261719,-217.7746429443359,-158.5808715820312
2024-11-13 15:02:46.387 +0100,394,69245.16178712501,-0.006988525390625,-0.02703857421875,-1.000335693359375,69245.15308212501,0.003314570290967822,-0.001874865381978452,-0.0009009473724290729,69245.15566412501,322.8557739257812,-218.0049285888672,-158.5781707763672
2024-11-13 15:02:46.397 +0100,395,69245.171735125,-0.007293701171875,-0.025634765625,-0.99932861328125,69245.163030125,0.001147556118667126,-0.001928394893184304,0.0001906823308672756,69245.165947125,323.1734619140625,-217.9155883789062,-158.7149963378906
2024-11-13 15:02:46.407 +0100,396,69245.18168212501,-0.0075836181640625,-0.0268707275390625,-0.9981842041015625,69245.172978125,0.002829608740285039,-0.00145648280158639,-0.001221858314238489,69245.176230125,322.9702758789062,-217.9192199707031,-158.7265625
2024-11-13 15:02:46.417 +0100,397,69245.191630125,-0.00811767578125,-0.0277099609375,-1.000045776367188,69245.182925125,0.002140382537618279,-0.003603789489716291,-0.003298591356724501,69245.186514125,323.1793212890625,-217.8879547119141,-158.6743774414062
2024-11-13 15:02:46.427 +0100,398,69245.20157812501,-0.00701904296875,-0.0279998779296875,-1.00079345703125,69245.19287312501,0.0008463526028208435,-0.002495115622878075,-0.002596315694972873,69245.19679812501,322.9102172851562,-217.9267578125,-158.6456298828125
2024-11-13 15:02:46.437 +0100,399,69245.211526125,-0.0080413818359375,-0.0277099609375,-1.000442504882812,69245.202821125,0.001601625117473304,-0.004673048853874207,-0.0005976133397780359,69245.20708212501,323.098388671875,-218.0663299560547,-158.7132873535156
2024-11-13 15:02:46.451 +0100,400,69245.221473125,-0.007415771484375,-0.0274200439453125,-0.9996185302734375,69245.21276912501,-0.000254331884207204,-0.002109489869326353,-0.0002346244873479009,69245.217364125,322.9973449707031,-217.9751129150391,-158.4803771972656
2024-11-13 15:02:46.457 +0100,401,69245.231421125,-0.0071868896484375,-0.027557373046875,-0.997406005859375,69245.222716125,0.00170788518153131,-0.002752909669652581,0.000478836358524859,69245.227648125,323.12890625,-217.8836212158203,-158.6166534423828
2024-11-13 15:02:46.467 +0100,402,69245.24136912501,-0.007476806640625,-0.0284271240234375,-0.998809814453125,69245.23266412501,-0.001120125525631011,-0.00104102969635278,-0.000214917105040513,69245.237931125,322.7335815429688,-217.9833526611328,-158.7657623291016
2024-11-13 15:02:46.477 +0100,403,69245.25131612501,-0.00616455078125,-0.0274505615234375,-0.999969482421875,69245.242612125,0.0001454086013836786,-0.001745968358591199,-0.0003534014686010778,69245.24821412501,323.1535034179688,-217.905029296875,-158.5219421386719
2024-11-13 15:02:46.487 +0100,404,69245.261264125,-0.0074462890625,-0.0272064208984375,-0.999969482421875,69245.252559125,0.0005968143814243376,-0.002175536239519715,0.0002793656021822244,69245.258497125,322.7703552246094,-217.9664611816406,-158.741943359375
2024-11-13 15:02:46.497 +0100,405,69245.27121212501,-0.006439208984375,-0.0276947021484375,-1.00006103515625,69245.26250712501,0.002385659608989954,-0.002168079372495413,-0.001786182168871164,69245.26877912501,323.0935668945312,-217.9999237060547,-158.7284088134766
2024-11-13 15:02:46.512 +0100,406,69245.28115912501,-0.0076141357421875,-0.0260467529296875,-1.000244140625,69245.272455125,0.001970206620171666,-0.003036536276340485,0.0004055994213558733,69245.27906312501,322.9249877929688,-218.0010528564453,-158.7445831298828
2024-11-13 15:02:46.516 +0100,407,69245.291107125,-0.00726318359375,-0.0274658203125,-0.9995880126953125,69245.282402125,0.0005787048721686006,-0.003023220458999276,-0.0007997472421266139,69245.289347125,323.035400390625,-217.9222869873047,-158.4686584472656
2024-11-13 15:02:46.526 +0100,408,69245.301055125,-0.0084686279296875,-0.0269775390625,-0.999755859375,69245.292350125,0.00295903836376965,-0.002922286745160818,-0.001704955706372857,69245.29963012501,322.8781433105469,-217.9947814941406,-158.5578002929688
2024-11-13 15:02:46.536 +0100,409,69245.311002125,-0.0068206787109375,-0.0262298583984375,-0.99993896484375,69245.30229812501,-0.001517735538072884,-0.003154247999191284,-0.002213885774835944,69245.30991312501,323.0138549804688,-217.9105377197266,-158.5787963867188
2024-11-13 15:02:46.546 +0100,410,69245.32095012501,-0.0069580078125,-0.0261383056640625,-1.000198364257812,69245.31224512501,0.002573678968474269,-0.003372893435880542,-0.002921221312135458,69245.32019712501,322.9222412109375,-217.8979339599609,-158.4296417236328
2024-11-13 15:02:46.556 +0100,411,69245.330898125,-0.006927490234375,-0.02685546875,-0.998687744140625,69245.322193125,0.0009712548344396055,-0.005037635564804077,-0.000740625080652535,69245.33048012501,323.2546997070312,-217.7943572998047,-158.6174011230469
2024-11-13 15:02:46.566 +0100,412,69245.340845125,-0.0063934326171875,-0.0270843505859375,-0.9998779296875,69245.33214112501,-0.001747832633554935,-0.0006495449924841523,-0.001264468883164227,69245.34076412501,323.0656127929688,-217.8485870361328,-158.7107086181641
2024-11-13 15:02:46.579 +0100,413,69245.35079312501,-0.00592041015625,-0.02752685546875,-0.9993743896484375,69245.34208812501,0.001415203791111708,-0.001597630325704813,-0.000429834210081026,69245.351047125,323.1796875,-217.7700347900391,-158.6190948486328
2024-11-13 15:02:46.586 +0100,414,69245.360741125,-0.008392333984375,-0.0269927978515625,-0.9997406005859375,69245.352036125,0.002864762442186475,-0.001670600962825119,-0.0006878945278003812,69245.361330125,322.9875793457031,-218.0107269287109,-158.64599609375
2024-11-13 15:02:46.596 +0100,415,69245.37068812501,-0.00689697265625,-0.02703857421875,-1.000381469726562,69245.361984125,0.001873800181783736,-0.002283926820382476,-0.000182959163794294,69245.371615125,323.0156860351562,-217.936767578125,-158.6563415527344
2024-11-13 15:02:46.606 +0100,416,69245.380636125,-0.0074920654296875,-0.02703857421875,-0.999298095703125,69245.371931125,0.001218129880726337,-0.0007491472060792148,-0.0008572715451009572,69245.381899125,323.02685546875,-217.9560394287109,-158.7293548583984
2024-11-13 15:02:46.616 +0100,417,69245.39058412501,-0.00738525390625,-0.0274200439453125,-0.998443603515625,69245.38187912501,0.001563275582157075,-0.003177417442202568,0.0004844290087930858,69245.39218212501,323.130615234375,-217.8611602783203,-158.7472991943359
2024-11-13 15:02:46.632 +0100,418,69245.400532125,-0.008209228515625,-0.02667236328125,-1.000686645507812,69245.391827125,0.002426672261208296,-0.003212304785847664,-0.002100168727338314,69245.40246712501,322.8939208984375,-217.9518737792969,-158.5901184082031
2024-11-13 15:02:46.636 +0100,419,69245.410479125,-0.0081329345703125,-0.028167724609375,-0.998443603515625,69245.40177512501,0.001665540970861912,-0.00295903836376965,-0.0008695221040397882,69245.41274912501,322.955322265625,-217.9760131835938,-158.6059112548828
2024-11-13 15:02:46.646 +0100,420,69245.42042712501,-0.0056610107421875,-0.0280609130859375,-0.9994964599609375,69245.41172212501,0.003145459573715925,-0.002215750049799681,0.0001986718125408515,69245.423033125,323.0748901367188,-217.8969268798828,-158.9098205566406
2024-11-13 15:02:46.656 +0100,421,69245.430375125,-0.0074462890625,-0.02716064453125,-0.999176025390625,69245.421670125,0.00123810360673815,-0.001729989424347878,-0.0002689792599994689,69245.43331612501,322.9846801757812,-218.0193634033203,-158.7747802734375
2024-11-13 15:02:46.666 +0100,422,69245.44032212501,-0.0074462890625,-0.027587890625,-0.9975738525390625,69245.431618125,0.001182443462312222,-0.003644003299996257,0.0004026699461974204,69245.43331612501,322.9846801757812,-218.0193634033203,-158.7747802734375
2024-11-13 15:02:46.676 +0100,423,69245.450270125,-0.006927490234375,-0.027801513671875,-0.9995269775390625,69245.441565125,-8.016114588826895e-05,-0.001826928462833166,-0.0003667172859422863,69245.443600125,323.1698608398438,-217.9235382080078,-158.7462921142578
2024-11-13 15:02:46.686 +0100,424,69245.46021812501,-0.0062408447265625,-0.02716064453125,-1.000274658203125,69245.45151312501,0.001916144392453134,-0.002351837465539575,-0.001320128911174834,69245.45388312501,322.8681030273438,-217.8653106689453,-158.6189117431641
2024-11-13 15:02:46.696 +0100,425,69245.47016512501,-0.0078582763671875,-0.0266571044921875,-0.9998626708984375,69245.461461125,0.000761664065066725,-0.004274639766663313,-0.003364371368661523,69245.464167125,323.1607360839844,-217.8436584472656,-158.6555023193359
2024-11-13 15:02:46.706 +0100,426,69245.480113125,-0.0069427490234375,-0.0257415771484375,-0.9987030029296875,69245.471408125,0.002074069809168577,-0.003590207546949387,-0.001921204384416342,69245.47445012501,322.8992919921875,-217.8672027587891,-158.7308502197266
2024-11-13 15:02:46.715 +0100,427,69245.49006112501,-0.0091094970703125,-0.0266571044921875,-0.999908447265625,69245.481356125,-0.001172856078483164,-0.002197374124079943,-0.001966478070244193,69245.48473312501,323.2352905273438,-217.9234619140625,-158.8052368164062
2024-11-13 15:02:46.725 +0100,428,69245.500008125,-0.0082855224609375,-0.026611328125,-1.000457763671875,69245.49130412501,0.001226651947945356,-0.002191515173763037,0.000916393706575036,69245.49501712501,323.0806884765625,-217.933837890625,-158.6509704589844
2024-11-13 15:02:46.735 +0100,429,69245.50995612501,-0.0068206787109375,-0.0268402099609375,-1.000213623046875,69245.50125112501,0.002114017261192203,-0.00216488353908062,0.0004404868523124605,69245.505301125,323.1988525390625,-217.8217010498047,-158.6145935058594
2024-11-13 15:02:46.751 +0100,430,69245.519904125,-0.00714111328125,-0.02685546875,-1.00048828125,69245.511199125,0.0004655205411836505,-0.001407746924087405,2.396845047769602e-06,69245.515585125,323.1052856445312,-217.8946685791016,-158.8967437744141
2024-11-13 15:02:46.755 +0100,431,69245.52985212501,-0.0079803466796875,-0.0267486572265625,-0.999114990234375,69245.52114712501,-0.0004780374001711607,-0.003682885551825166,-0.0007968177669681609,69245.525868125,323.3653259277344,-217.7237396240234,-158.7667999267578
2024-11-13 15:02:46.765 +0100,432,69245.53979912501,-0.0092315673828125,-0.0269927978515625,-0.9993743896484375,69245.531095125,0.0006327670416794717,-0.001047687605023384,-0.0001203748834086582,69245.536152125,322.9654846191406,-218.1210327148438,-158.7859954833984
2024-11-13 15:02:46.775 +0100,433,69245.549747125,-0.0067596435546875,-0.0272979736328125,-0.9993743896484375,69245.541042125,0.0013928331900388,-0.003038134193047881,-0.001479918602854013,69245.546435125,323.3218383789062,-217.8957977294922,-158.9090728759766
2024-11-13 15:02:46.785 +0100,434,69245.559695125,-0.008209228515625,-0.0274810791015625,-0.9980316162109375,69245.550990125,0.002555036684498191,-0.001672997837886214,-0.0006609965930692852,69245.556719125,322.8382568359375,-218.0011138916016,-158.8477020263672
2024-11-13 15:02:46.795 +0100,435,69245.569642125,-0.0079345703125,-0.0277099609375,-1.000045776367188,69245.56093812501,-0.0002431466127745807,-0.00227833422832191,-0.0002868224401026964,69245.567002125,323.1401977539062,-217.8883209228516,-158.7492523193359
2024-11-13 15:02:46.813 +0100,436,69245.57959012501,-0.0069427490234375,-0.0253448486328125,-1.00054931640625,69245.57088512501,0.001486576511524618,-0.001976331928744912,-0.003481017891317606,69245.57728512501,322.8409118652344,-217.9591979980469,-158.7993621826172
2024-11-13 15:02:46.815 +0100,437,69245.589538125,-0.006317138671875,-0.0274810791015625,-0.998809814453125,69245.580833125,0.0006442186422646046,-0.003536944277584553,-0.001311074243858457,69245.587568125,323.0001525878906,-217.9005126953125,-158.5818023681641
2024-11-13 15:02:46.825 +0100,438,69245.599485125,-0.0074005126953125,-0.0273284912109375,-0.99774169921875,69245.59078112501,0.001605353434570134,-0.00379021093249321,-0.001905491692014039,69245.59785012501,322.8728637695312,-217.8620910644531,-158.684326171875
2024-11-13 15:02:46.835 +0100,439,69245.60943312501,-0.007568359375,-0.0274200439453125,-0.9995269775390625,69245.60072812501,0.0005286374944262207,-0.003289536572992802,-0.002526274649426341,69245.608133125,323.268798828125,-217.8383178710938,-158.9138641357422
2024-11-13 15:02:46.845 +0100,440,69245.619381125,-0.00872802734375,-0.0272674560546875,-0.9994964599609375,69245.610676125,-0.0003054645785596222,-0.002699380042031407,-2.876213875424583e-05,69245.61841712501,322.7313232421875,-218.1268463134766,-158.7228088378906
2024-11-13 15:02:46.855 +0100,441,69245.62932812501,-0.007568359375,-0.027099609375,-0.998931884765625,69245.620624125,-0.0002428802836220711,-0.003431216813623905,-0.001207477180287242,69245.62870112501,323.1223754882812,-217.9554595947266,-158.6198272705078
2024-11-13 15:02:46.865 +0100,442,69245.639276125,-0.0093994140625,-0.0268707275390625,-0.9990997314453125,69245.630571125,-0.0006929545197635889,-0.001892974833026528,-0.002119343494996428,69245.63898412501,322.9471130371094,-217.9722747802734,-158.7216491699219
2024-11-13 15:02:46.880 +0100,443,69245.64922412501,-0.0077667236328125,-0.027618408203125,-1.000289916992188,69245.64051912501,0.003869573120027781,-0.002634132513776422,-0.004522580187767744,69245.64926812501,323.126953125,-217.9358367919922,-158.6001129150391
2024-11-13 15:02:46.885 +0100,444,69245.65917112501,-0.0083770751953125,-0.027191162109375,-1.000778198242188,69245.650467125,0.002418949268758297,-0.002903111977502704,-0.0002314286975888535,69245.65955112501,323.019287109375,-218.0137023925781,-158.9928131103516
2024-11-13 15:02:46.894 +0100,445,69245.669119125,-0.0078582763671875,-0.025482177734375,-0.9998931884765625,69245.660414125,-0.0003145193331874907,-0.001995772821828723,-0.002172074280679226,69245.669834125,323.0336303710938,-218.0606994628906,-158.7413787841797
2024-11-13 15:02:46.904 +0100,446,69245.67906712501,-0.007659912109375,-0.0277252197265625,-0.998291015625,69245.67036212501,-0.001479652244597673,-0.002050367649644613,0.0001909486454678699,69245.680118125,322.9169311523438,-218.1600799560547,-158.7355041503906
2024-11-13 15:02:46.914 +0100,447,69245.68901525,-0.0073089599609375,-0.0264129638671875,-0.9993438720703125,69245.680310125,0.001659415662288666,-0.0007547398563474417,0.0007566040731035173,69245.690401125,323.0205688476562,-218.0150451660156,-158.6038513183594
2024-11-13 15:02:46.932 +0100,448,69245.69896225001,-0.007049560546875,-0.0261688232421875,-1.00006103515625,69245.69025825,-0.0002298307954333723,-0.0001041295981849544,-6.684534309897572e-05,69245.70068625,323.0243835449219,-218.0059051513672,-158.9782562255859
2024-11-13 15:02:46.934 +0100,449,69245.70891025,-0.0071868896484375,-0.0268707275390625,-1.00018310546875,69245.70020525,0.001282045734114945,-0.002739860210567713,8.548746700398624e-05,69245.71097025,323.1328125,-217.9516296386719,-158.9545745849609
2024-11-13 15:02:46.944 +0100,450,69245.71885825001,-0.0066986083984375,-0.0264434814453125,-0.99847412109375,69245.71015325001,0.002901780186221004,-0.001382979564368725,-0.000535561703145504,69245.72125325,323.0388793945312,-217.9165802001953,-158.6439666748047
2024-11-13 15:02:46.954 +0100,451,69245.72880525001,-0.0089111328125,-0.02587890625,-0.9999237060546875,69245.72010125,0.001531850197352469,-0.002179797273129225,-0.003070092061534524,69245.73153625001,323.16357421875,-217.9663543701172,-158.5638275146484
2024-11-13 15:02:46.964 +0100,452,69245.73875325,-0.0098419189453125,-0.02783203125,-0.9991455078125,69245.73004825,0.002943858271464705,-0.00119602563790977,0.0004050667921546847,69245.74181925,323.0326538085938,-218.1731414794922,-158.6810150146484
2024-11-13 15:02:46.974 +0100,453,69245.74870125001,-0.0084991455078125,-0.0271759033203125,-0.9988250732421875,69245.73999625001,-0.0006894923863001168,-0.0004210457555018365,-0.003410177771002054,69245.74181925,323.0326538085938,-218.1731414794922,-158.6810150146484
2024-11-13 15:02:46.985 +0100,454,69245.75864825,-0.0076751708984375,-0.0269927978515625,-0.9985809326171875,69245.74994425,-0.0004780374001711607,-0.001758485217578709,-0.002968891989439726,69245.75210225,323.2475891113281,-217.9909057617188,-158.9546203613281
2024-11-13 15:02:46.996 +0100,455,69245.76859625001,-0.00872802734375,-0.0266265869140625,-1.000335693359375,69245.75989125001,0.001866343314759433,-0.001697232597507536,-0.002136920345947146,69245.76238525001,323.0599975585938,-217.9428253173828,-158.9122009277344
2024-11-13 15:02:47.004 +0100,456,69245.77854425,-0.008087158203125,-0.0275115966796875,-0.9994354248046875,69245.77978725001,-0.0009917612187564373,-0.005000350996851921,0.001291633117944002,69245.77266925,322.818359375,-218.1563110351562,-158.7322082519531
2024-11-13 15:02:47.014 +0100,457,69245.78849125,-0.006988525390625,-0.0273590087890625,-0.99920654296875,69245.77978725001,-0.0009917612187564373,-0.005000350996851921,0.001291633117944002,69245.78295225001,322.927978515625,-217.9544982910156,-158.7533416748047
