SamplingTime, AccelerationX, AccelerationY, AccelerationZ, GyroX, GyroY, GyroZ, MagneticFieldX, MagneticFieldY, MagneticFieldZ
1731946992.901226, -0.113425, -0.566079, -9.988011, 0.008950, 0.055056, -0.000618, , , 
1731946992.911005, -0.011372, -0.576554, -9.731682, -0.003462, -0.004217, -0.009590, , , 
1731946992.921228, -0.040552, -0.524480, -9.847800, 0.008891, 0.050863, -0.001406, , , 
1731946992.931255, 0.037409, -0.564134, -9.641151, -0.010666, -0.024250, -0.001437, , , 
1731946992.941176, -0.049380, -0.563984, -9.884162, -0.003043, 0.001931, -0.001250, , , 
1731946992.951248, -0.062698, -0.572065, -9.888202, 0.002146, 0.024486, -0.002052, , , 
1731946992.961057, 0.018405, -0.610821, -9.669133, -0.010882, -0.015713, -0.001576, , , 
1731946992.971171, -0.042497, -0.587477, -9.887604, -0.002863, 0.008870, -0.001956, , , 
1731946992.981243, -0.036661, -0.577900, -9.811887, -0.001338, 0.011725, -0.001676, , , 
1731946992.991226, -0.011522, -0.563834, -9.743952, -0.008551, -0.008870, 0.000036, , , 
1731946993.001181, -0.051176, -0.549170, -9.874735, -0.001575, 0.008876, -0.001629, , , 
1731946993.010645, -0.027234, -0.563086, -9.792135, -0.002717, 0.005005, -0.000305, , , 
1731946993.021185, -0.005537, -0.587328, -9.790639, -0.004118, -0.004491, -0.001362, , , 
1731946993.031172, -0.041001, -0.563984, -9.856479, 0.000443, 0.009746, -0.001942, , , 
1731946993.041184, -0.027833, -0.568623, -9.789142, -0.003655, 0.001733, -0.002648, , , 
1731946993.051182, -0.030077, -0.573112, -9.802161, -0.004753, 0.003738, -0.000368, , , 
1731946993.061055, -0.028730, -0.571765, -9.836278, -0.001728, 0.006351, -0.000655, , , 
1731946993.071175, -0.022595, -0.577302, -9.796924, -0.005808, 0.000806, 0.001139, , , 
1731946993.081173, -0.028132, -0.570867, -9.820866, -0.003662, 0.003027, -0.000900, , , 
1731946993.091178, -0.035015, -0.566378, -9.803807, -0.003373, 0.004714, -0.000573, , , 
1731946993.101171, -0.026635, -0.565929, -9.792434, -0.003430, 0.000833, -0.001264, , , 
1731946993.111065, -0.033968, -0.556053, -9.809044, -0.003500, 0.004470, -0.001254, , , 
1731946993.121027, -0.034566, -0.558747, -9.802311, -0.003854, 0.004734, -0.001257, , , 
1731946993.131172, -0.010774, -0.575955, -9.794679, -0.002948, 0.001908, -0.001284, , , 
1731946993.141214, -0.022595, -0.568174, -9.804705, -0.002521, 0.005483, -0.001070, , , 
1731946993.151174, -0.038158, -0.584185, -9.816376, -0.002102, 0.002970, 0.000108, , , 
1731946993.161107, -0.032920, -0.578798, -9.818771, -0.003431, 0.002770, 0.000563, , , 
1731946993.171185, -0.022745, -0.577152, -9.821015, -0.004486, 0.004829, -0.001769, , , 
1731946993.181183, -0.026037, -0.562787, -9.801413, -0.003690, 0.003104, -0.001043, , , 
1731946993.191225, -0.033818, -0.558298, -9.825055, -0.003774, 0.002929, -0.001389, , , 
1731946993.201182, -0.019453, -0.590919, -9.797522, -0.002791, 0.004152, -0.000758, , , 
1731946993.211176, -0.015263, -0.597054, -9.812336, -0.003871, 0.001566, -0.000562, , , 
1731946993.221191, -0.028880, -0.543633, -9.800365, -0.003989, 0.004949, -0.000896, , , 
1731946993.230373, -0.031723, -0.543933, -9.812336, -0.004050, 0.001744, -0.000543, , , 
1731946993.241263, -0.042497, -0.545130, -9.769989, -0.003154, 0.003455, 0.000837, , , 
1731946993.251214, -0.025289, -0.554557, -9.803059, -0.002443, 0.003487, -0.000225, , , 
1731946993.261183, -0.020800, -0.587178, -9.796325, -0.002444, 0.003880, -0.000703, , , 
1731946993.271177, -0.021997, -0.602740, -9.805902, -0.004172, 0.001936, -0.001608, , , 
1731946993.281186, -0.028431, -0.579546, -9.818322, -0.004451, 0.005288, -0.000028, , , 
1731946993.291231, -0.039504, -0.565481, -9.813384, -0.003347, 0.004003, -0.001505, , , 
1731946993.301208, -0.040103, -0.566079, -9.812486, -0.003133, 0.004169, -0.000340, , , 
1731946993.311177, -0.015862, -0.556802, -9.809942, -0.004022, 0.003243, -0.000012, , , 
1731946993.321192, -0.030077, -0.554856, -9.798270, -0.002596, 0.003457, -0.001570, , , 
1731946993.331186, -0.028132, -0.561440, -9.815628, -0.002199, 0.003979, -0.000959, , , 
1731946993.341228, -0.027982, -0.573411, -9.806201, -0.003251, 0.005018, -0.000596, , , 
1731946993.351204, -0.020201, -0.575057, -9.808895, -0.003132, 0.003355, -0.000859, , , 
1731946993.361191, -0.029628, -0.576404, -9.812336, -0.003626, 0.004274, -0.001734, , , 
1731946993.371191, -0.036960, -0.575207, -9.805902, -0.004193, 0.002205, -0.001883, , , 
1731946993.381184, -0.047285, -0.572962, -9.798270, -0.004571, 0.003209, -0.001861, , , 
1731946993.391305, -0.030825, -0.572214, -9.806949, -0.003472, 0.003814, -0.000764, , , 
1731946993.401202, -0.011672, -0.557849, -9.816227, -0.003916, 0.003859, -0.000206, , , 
1731946993.410599, -0.022595, -0.565630, -9.786299, -0.002947, 0.003285, -0.002132, , , 
1731946993.420501, -0.027084, -0.569072, -9.806800, -0.004326, 0.003466, -0.001460, , , 
1731946993.431183, -0.026336, -0.557699, -9.805303, -0.003049, 0.004373, -0.000774, , , 
1731946993.440702, -0.017957, -0.558148, -9.807099, -0.003932, 0.004584, -0.000554, , , 
1731946993.451248, -0.027533, -0.575656, -9.793482, -0.003344, 0.003296, -0.000357, , , 
1731946993.461192, -0.017957, -0.587328, -9.808895, -0.002759, 0.003679, -0.001264, , , 
1731946993.471188, -0.024989, -0.591218, -9.809493, -0.004997, 0.003436, -0.000996, , , 
1731946993.481256, -0.034866, -0.580444, -9.820117, -0.004917, 0.003814, -0.001263, , , 
1731946993.491235, -0.027384, -0.566378, -9.798420, -0.003863, 0.003635, -0.001170, , , 
1731946993.501204, -0.034716, -0.548871, -9.798869, -0.004694, 0.003936, -0.001330, , , 
1731946993.511183, -0.032771, -0.557101, -9.806500, -0.002994, 0.002801, -0.001119, , , 
1731946993.521182, -0.039205, -0.563386, -9.802460, -0.003247, 0.002904, -0.001691, , , 
1731946993.531187, -0.031424, -0.572513, -9.810541, -0.004470, 0.004290, -0.000876, , , 
1731946993.540536, -0.023643, -0.585831, -9.807099, -0.003545, 0.003735, 0.000371, , , 
1731946993.551254, -0.011073, -0.594211, -9.811139, -0.003113, 0.002323, -0.001345, , , 
1731946993.561216, -0.033070, -0.582539, -9.804405, -0.005255, 0.003237, -0.000697, , , 
1731946993.571182, -0.014664, -0.569072, -9.817574, -0.005958, 0.003363, 0.000327, , , 
1731946993.581193, -0.021997, -0.552163, -9.804405, -0.004520, 0.004053, -0.001462, , , 
1731946993.591251, -0.030077, -0.551863, -9.789292, -0.003988, 0.003342, -0.000064, , , 
1731946993.601256, -0.020650, -0.553659, -9.807997, -0.003701, 0.002578, -0.002639, , , 
1731946993.611179, -0.025887, -0.581192, -9.810241, -0.003934, 0.003216, -0.001755, , , 
1731946993.621189, -0.022446, -0.587178, -9.810541, -0.003958, 0.002972, -0.000247, , , 
1731946993.631177, -0.027384, -0.602890, -9.825953, -0.004256, 0.004226, -0.001886, , , 
1731946993.641241, -0.018405, -0.584185, -9.800066, -0.003026, 0.004976, -0.000738, , , 
1731946993.651209, -0.024840, -0.564882, -9.812935, -0.003940, 0.000323, -0.003162, , , 
1731946993.661209, -0.021997, -0.551115, -9.803059, -0.002436, 0.004708, -0.000166, , , 
1731946993.671205, -0.024840, -0.548721, -9.812037, -0.003813, 0.002691, -0.001606, , , 
1731946993.681271, -0.043096, -0.562937, -9.806800, -0.004169, 0.004666, -0.001938, , , 
1731946993.691244, -0.036512, -0.574010, -9.813982, -0.004362, 0.003202, -0.000673, , , 
1731946993.701192, -0.021548, -0.580145, -9.809044, -0.003586, 0.003757, -0.001333, , , 
1731946993.711192, -0.015113, -0.574758, -9.812187, -0.004031, 0.002765, 0.000106, , , 
1731946993.721191, -0.015263, -0.593014, -9.803807, -0.005253, 0.004030, -0.001700, , , 
1731946993.731187, -0.032471, -0.585682, -9.792883, -0.003262, 0.003865, -0.001521, , , 
1731946993.741255, -0.018256, -0.549320, -9.815329, -0.005417, 0.003709, -0.000911, , , 
1731946993.751220, -0.035314, -0.560393, -9.820866, -0.002870, 0.002460, -0.001617, , , 
1731946993.761215, -0.026486, -0.552911, -9.804405, -0.002805, 0.003754, -0.000839, , , 
1731946993.771033, -0.026635, -0.580744, -9.809792, -0.003199, 0.005374, -0.001984, , , 
1731946993.781210, -0.024989, -0.583587, -9.805154, -0.001033, 0.002476, 0.000925, , , 
1731946993.791251, -0.024391, -0.574608, -9.814581, -0.002854, 0.004017, -0.000971, , , 
1731946993.801269, -0.032322, -0.579098, -9.808296, -0.004849, 0.003771, 0.000976, , , 
1731946993.811217, -0.023194, -0.564283, -9.789142, -0.004669, 0.006573, -0.000866, , , 
1731946993.821202, -0.035913, -0.579098, -9.806650, -0.003479, 0.003650, -0.001342, , , 
1731946993.831194, -0.024989, -0.574608, -9.813833, -0.004343, 0.003844, -0.000081, , , 
1731946993.840846, -0.030227, -0.567426, -9.810241, -0.002961, 0.001988, 0.000002, , , 
1731946993.851172, -0.033668, -0.568922, -9.820417, -0.002766, 0.003676, -0.000646, , , 
1731946993.860906, -0.026935, -0.558298, -9.802311, -0.003928, 0.004546, -0.001852, , , 
1731946993.870831, -0.028880, -0.569820, -9.809643, -0.005289, 0.003593, -0.002414, , , 
1731946993.881199, -0.024989, -0.580444, -9.814282, -0.003994, 0.003490, -0.001985, , , 
1731946993.891236, -0.027982, -0.577003, -9.804256, -0.004078, 0.003737, -0.002886, , , 
1731946993.901126, -0.027833, -0.568773, -9.803358, -0.002963, 0.003027, -0.000827, , , 
1731946993.911202, -0.034566, -0.580145, -9.809493, -0.005027, 0.005875, -0.001161, , , 
1731946993.921267, -0.027384, -0.568024, -9.803208, -0.004679, 0.004130, -0.000093, , , 
1731946993.931214, -0.023194, -0.557550, -9.799318, -0.004682, 0.004850, -0.001992, , , 
1731946993.941254, -0.015413, -0.557550, -9.819519, -0.003969, 0.003780, -0.000097, , , 
1731946993.950974, -0.031873, -0.561590, -9.804405, -0.004668, 0.002798, -0.000165, , , 
1731946993.961255, -0.034716, -0.564583, -9.811887, -0.003914, 0.002426, -0.001094, , , 
1731946993.971200, -0.033220, -0.591966, -9.803358, -0.002924, 0.003492, -0.002075, , , 
1731946993.981190, -0.021398, -0.580744, -9.816526, -0.003410, 0.004024, -0.002331, , , 
1731946993.991271, -0.029030, -0.588674, -9.818621, -0.004807, 0.002853, -0.000253, , , 
1731946994.000947, -0.038158, -0.564433, -9.809493, -0.004083, 0.001356, -0.001160, , , 
1731946994.011289, -0.027234, -0.550966, -9.801862, -0.004324, 0.003793, -0.002795, , , 
1731946994.021204, -0.031574, -0.555904, -9.807099, -0.005513, 0.003266, -0.002255, , , 
1731946994.031192, -0.023792, -0.552612, -9.820866, -0.002578, 0.002829, -0.000846, , , 
1731946994.041281, -0.019453, -0.569371, -9.813683, -0.003560, 0.003005, -0.000574, , , 
1731946994.050803, -0.023643, -0.574010, -9.812785, -0.003532, 0.004459, -0.000835, , , 
1731946994.061282, -0.034117, -0.583138, -9.811738, -0.002802, 0.003892, -0.000937, , , 
1731946994.071214, -0.026935, -0.575506, -9.821314, -0.004053, 0.003544, -0.000858, , , 
1731946994.081190, -0.027384, -0.566378, -9.808745, -0.004478, 0.003535, -0.001296, , , 
1731946994.091257, -0.035015, -0.567426, -9.811139, -0.004355, 0.003218, -0.001600, , , 
1731946994.100791, -0.028880, -0.554856, -9.815479, -0.002887, 0.004961, -0.001692, , , 
1731946994.111280, -0.022745, -0.570867, -9.813982, -0.003198, 0.004147, -0.001290, , , 
1731946994.121206, -0.022446, -0.558148, -9.794380, -0.003970, 0.003156, -0.001587, , , 
1731946994.130931, -0.033369, -0.579247, -9.806201, -0.003403, 0.004142, 0.001216, , , 
1731946994.141247, -0.039654, -0.577452, -9.817723, -0.004250, 0.003198, 0.000964, , , 
1731946994.150705, -0.028431, -0.591817, -9.813084, -0.004525, 0.002200, -0.000907, , , 
1731946994.160978, -0.031873, -0.568623, -9.816227, -0.004524, 0.004115, -0.001310, , , 
1731946994.171228, -0.018705, -0.561590, -9.796774, -0.005686, 0.004659, -0.001258, , , 
1731946994.181230, -0.031723, -0.557101, -9.810391, -0.003556, 0.002394, -0.000989, , , 
1731946994.191250, -0.040552, -0.559046, -9.811289, -0.004385, 0.003307, -0.000695, , , 
1731946994.200561, -0.023792, -0.568174, -9.803208, -0.004520, 0.002504, -0.001709, , , 
1731946994.211220, -0.012121, -0.569072, -9.808296, -0.003642, 0.003581, -0.001321, , , 
1731946994.220288, -0.017657, -0.569371, -9.795427, -0.003854, 0.003756, -0.002085, , , 
1731946994.231205, -0.037409, -0.570269, -9.806949, -0.003088, 0.004105, -0.000353, , , 
1731946994.241322, -0.031424, -0.568623, -9.805752, -0.004488, 0.004120, -0.002408, , , 
1731946994.250522, -0.025139, -0.577601, -9.818471, -0.003232, 0.004416, -0.000354, , , 
1731946994.261200, -0.020500, -0.571915, -9.818022, -0.005710, 0.002148, -0.001958, , , 
1731946994.271251, -0.021697, -0.568473, -9.803508, -0.004041, 0.002587, -0.001577, , , 
1731946994.281276, -0.023643, -0.560692, -9.803059, -0.003369, 0.002568, -0.001499, , , 
1731946994.291251, -0.031424, -0.570419, -9.808895, -0.003883, 0.002793, -0.001819, , , 
1731946994.300462, -0.013018, -0.565331, -9.801413, -0.004492, 0.003000, 0.000189, , , 
1731946994.311205, -0.035464, -0.555604, -9.799916, -0.005067, 0.003561, -0.001117, , , 
1731946994.321206, -0.030227, -0.566528, -9.810989, -0.002378, 0.003080, -0.001286, , , 
1731946994.331220, -0.028880, -0.587477, -9.814730, -0.002893, 0.003572, -0.000705, , , 
1731946994.341327, -0.024241, -0.577601, -9.822512, -0.004869, 0.003137, -0.000726, , , 
1731946994.350320, -0.014664, -0.565630, -9.821165, -0.006211, 0.004634, -0.001012, , , 
1731946994.361206, -0.019453, -0.568324, -9.810241, -0.005139, 0.005155, -0.000642, , , 
1731946994.371218, -0.029628, -0.574908, -9.806650, -0.003942, 0.002349, -0.000977, , , 
1731946994.381211, -0.019303, -0.549918, -9.796475, -0.003412, 0.001051, -0.001549, , , 
1731946994.391248, -0.029628, -0.568623, -9.809044, -0.003218, 0.003950, -0.002441, , , 
1731946994.400221, -0.035015, -0.576105, -9.809343, -0.004742, 0.002740, -0.001105, , , 
1731946994.410941, -0.027982, -0.578649, -9.813683, -0.003539, 0.004729, -0.001825, , , 
1731946994.421213, -0.033668, -0.590919, -9.809493, -0.004347, 0.005128, -0.001186, , , 
1731946994.431279, -0.030825, -0.585532, -9.813084, -0.003862, 0.003401, -0.000677, , , 
1731946994.441257, -0.026785, -0.575955, -9.823559, -0.003817, 0.002069, -0.000077, , , 
1731946994.451211, -0.031574, -0.530465, -9.710882, -0.009675, 0.009471, -0.000131, , , 
1731946994.461205, -0.025438, -0.550666, -9.882217, -0.007088, 0.015853, -0.001111, , , 
1731946994.471281, -0.037709, -0.552462, -9.755025, -0.003300, 0.005548, -0.001006, , , 
1731946994.481224, -0.020949, -0.594510, -9.843461, -0.005866, -0.004110, 0.000510, , , 
1731946994.491269, -0.033818, -0.581342, -9.807398, -0.003812, 0.007472, -0.001748, , , 
1731946994.500221, -0.013916, -0.588674, -9.821913, -0.003264, 0.000795, -0.000063, , , 
1731946994.511204, -0.047585, -0.577601, -9.809343, -0.007899, -0.002651, -0.001100, , , 
1731946994.521286, -0.055366, -0.550068, -9.783606, -0.003201, 0.010435, -0.001973, , , 
1731946994.531226, -0.024541, -0.540042, -9.809643, -0.004910, -0.000960, -0.001316, , , 
1731946994.541276, -0.020500, -0.549320, -9.799467, -0.002917, 0.003002, -0.001497, , , 
1731946994.551212, -0.024541, -0.592565, -9.849895, -0.004987, 0.000424, -0.001189, , , 
1731946994.561210, -0.026336, -0.566229, -9.768642, -0.004068, 0.006857, 0.000150, , , 
1731946994.571289, -0.014365, -0.603638, -9.846154, -0.004325, 0.003266, -0.001368, , , 
1731946994.581213, -0.029179, -0.578948, -9.794529, -0.003669, 0.004153, -0.000405, , , 
1731946994.591250, -0.013467, -0.590021, -9.816077, -0.005293, 0.003200, -0.001094, , , 
1731946994.600268, -0.034716, -0.566528, -9.816676, -0.005816, 0.004084, -0.001245, , , 
1731946994.611215, -0.039654, -0.563386, -9.798719, -0.005548, 0.003510, -0.000743, , , 
1731946994.621219, -0.040701, -0.569221, -9.800365, -0.004762, 0.005286, -0.001215, , , 
1731946994.631224, -0.029928, -0.557550, -9.840019, -0.005645, 0.002341, -0.001944, , , 
1731946994.641255, -0.023942, -0.575656, -9.805303, -0.006383, 0.003144, -0.001607, , , 
1731946994.651218, -0.018106, -0.567276, -9.820117, -0.006435, 0.004452, -0.000772, , , 
1731946994.661216, -0.027833, -0.582988, -9.808296, -0.004498, 0.003384, -0.001473, , , 
1731946994.671214, -0.019453, -0.586729, -9.811139, -0.005864, 0.001888, -0.001628, , , 
1731946994.681283, -0.008978, -0.582689, -9.796624, -0.004930, 0.004453, -0.002236, , , 
1731946994.691239, -0.018705, -0.572813, -9.814730, -0.005409, 0.005544, -0.002572, , , 
1731946994.701220, -0.024690, -0.570269, -9.801263, -0.006485, 0.002578, -0.001171, , , 
1731946994.711229, -0.035913, -0.564583, -9.800515, -0.007083, 0.002447, -0.000607, , , 
1731946994.721275, -0.032172, -0.544531, -9.799168, -0.004946, 0.005122, -0.001095, , , 
1731946994.731211, -0.035314, -0.537349, -9.827450, -0.004766, 0.003247, -0.001850, , , 
1731946994.741323, -0.025289, -0.528670, -9.789591, -0.004147, 0.004015, -0.002270, , , 
1731946994.751219, -0.021847, -0.545878, -9.808745, -0.004111, 0.003620, -0.000432, , , 
1731946994.761259, -0.031125, -0.557699, -9.801712, -0.003700, 0.002895, 0.000024, , , 
1731946994.771230, -0.031873, -0.542586, -9.820716, -0.003054, 0.004113, -0.002941, , , 
1731946994.781282, -0.022595, -0.532261, -9.791986, -0.002958, 0.003817, 0.000077, , , 
1731946994.791265, -0.046687, -0.509067, -9.791387, -0.001648, 0.003912, -0.001626, , , 
1731946994.801215, -0.038457, -0.502333, -9.779566, -0.001293, 0.003572, -0.000807, , , 
1731946994.811216, -0.024989, -0.508020, -9.771186, -0.000179, 0.002830, -0.000908, , , 
1731946994.821221, -0.014066, -0.555754, -9.813683, -0.000045, 0.002491, 0.000752, , , 
1731946994.831253, -0.020500, -0.598102, -9.808595, 0.000333, 0.005255, -0.000511, , , 
1731946994.841290, -0.034267, -0.621295, -9.826552, -0.000364, 0.002332, -0.000466, , , 
1731946994.851218, -0.027234, -0.639551, -9.812785, -0.003761, 0.003981, -0.000753, , , 
1731946994.861220, -0.007482, -0.611270, -9.827749, -0.003342, 0.003346, -0.001829, , , 
1731946994.871284, -0.022296, -0.591966, -9.812336, -0.001756, 0.002272, -0.000406, , , 
1731946994.881266, -0.040701, -0.547524, -9.810391, -0.000886, 0.003959, -0.000327, , , 
1731946994.891262, -0.024391, -0.532860, -9.796774, -0.001127, 0.003540, -0.000733, , , 
1731946994.901222, -0.022296, -0.542736, -9.797372, -0.001560, 0.005125, 0.000234, , , 
1731946994.911214, -0.029628, -0.565929, -9.812037, -0.001576, 0.001906, -0.000141, , , 
1731946994.921221, -0.011821, -0.598999, -9.801862, -0.002641, 0.002227, -0.001026, , , 
1731946994.931234, -0.021847, -0.622343, -9.837176, -0.003574, 0.004058, -0.001119, , , 
1731946994.941134, -0.022745, -0.614412, -9.824457, -0.003973, 0.003588, 0.000892, , , 
1731946994.951279, -0.014365, -0.593612, -9.816526, -0.004553, 0.003461, -0.001958, , , 
1731946994.961224, -0.017957, -0.574309, -9.813683, -0.004237, 0.003929, -0.001073, , , 
1731946994.971253, -0.018854, -0.552312, -9.803059, -0.004438, 0.004188, -0.000506, , , 
1731946994.981285, -0.031723, -0.553360, -9.813384, -0.002916, 0.002850, -0.001271, , , 
1731946994.991270, -0.020949, -0.556652, -9.818621, -0.002098, 0.002978, 0.000285, , , 
1731946995.001235, -0.022745, -0.569521, -9.809643, -0.002374, 0.004777, -0.000174, , , 
1731946995.011212, -0.024092, -0.602740, -9.819818, -0.002490, 0.004715, -0.002009, , , 
1731946995.021286, -0.031424, -0.606182, -9.812935, -0.003212, 0.002070, -0.000671, , , 
1731946995.031290, -0.032621, -0.589871, -9.809493, -0.003626, 0.001805, -0.000263, , , 
1731946995.041274, -0.034866, -0.572065, -9.811738, -0.002091, 0.004168, -0.000551, , , 
1731946995.051226, -0.018106, -0.575357, -9.816227, -0.004729, 0.004758, -0.000546, , , 
1731946995.061214, -0.032771, -0.561889, -9.813533, -0.004494, 0.003244, -0.001619, , , 
1731946995.070918, -0.014664, -0.548721, -9.803358, -0.005280, 0.003369, -0.002479, , , 
1731946995.081291, -0.026785, -0.550068, -9.798570, -0.003210, 0.003581, -0.000333, , , 
1731946995.090683, -0.023044, -0.569521, -9.811738, -0.003058, 0.003050, 0.000094, , , 
1731946995.101229, -0.021997, -0.564283, -9.806650, -0.004247, 0.002404, -0.001235, , , 
1731946995.111243, -0.023643, -0.590470, -9.802759, -0.004070, 0.004060, -0.001234, , , 
1731946995.121222, -0.030077, -0.593313, -9.812486, -0.004303, 0.003550, 0.000385, , , 
1731946995.131230, -0.016909, -0.591218, -9.820117, -0.003725, 0.002702, -0.002040, , , 
1731946995.141234, -0.017807, -0.570718, -9.802759, -0.004499, 0.002491, -0.001187, , , 
1731946995.151218, -0.035464, -0.554557, -9.805004, -0.003300, 0.004061, -0.000507, , , 
1731946995.160921, -0.023493, -0.554707, -9.805902, -0.003517, 0.003497, -0.002314, , , 
1731946995.171233, -0.043395, -0.543035, -9.810989, -0.003588, 0.003349, -0.001511, , , 
1731946995.181227, -0.039205, -0.559794, -9.812187, -0.002756, 0.005112, 0.001486, , , 
1731946995.190377, -0.020201, -0.586430, -9.802311, -0.001389, 0.002726, -0.001888, , , 
1731946995.201238, -0.014515, -0.604386, -9.809643, -0.003267, 0.004079, -0.000573, , , 
1731946995.211221, -0.019453, -0.589722, -9.815030, -0.003981, 0.003904, -0.000716, , , 
1731946995.221223, -0.023643, -0.580145, -9.816975, -0.004874, 0.002455, -0.001638, , , 
1731946995.231294, -0.019453, -0.564583, -9.794380, -0.003745, 0.003377, -0.000334, , , 
1731946995.241234, -0.024541, -0.544082, -9.787945, -0.004214, 0.003199, -0.002571, , , 
1731946995.251234, -0.032022, -0.542885, -9.789591, -0.004648, 0.002390, -0.001948, , , 
1731946995.261231, -0.031274, -0.556353, -9.802161, -0.003457, 0.003604, -0.002071, , , 
1731946995.271096, -0.024541, -0.586130, -9.810989, -0.004978, 0.003964, -0.002182, , , 
1731946995.281296, -0.013916, -0.581941, -9.820866, -0.003301, 0.003764, -0.001374, , , 
1731946995.290303, -0.020650, -0.601394, -9.826402, -0.004098, 0.002096, -0.000382, , , 
1731946995.301231, -0.036512, -0.585532, -9.814880, -0.004193, 0.002586, -0.002471, , , 
1731946995.311224, -0.034566, -0.569221, -9.814431, -0.003138, 0.003405, -0.001411, , , 
1731946995.321016, -0.028282, -0.544232, -9.800814, -0.004572, 0.003142, -0.000349, , , 
1731946995.331216, -0.025887, -0.537349, -9.818920, -0.004449, 0.002679, -0.000728, , , 
1731946995.341279, -0.041450, -0.556652, -9.807398, -0.004091, 0.003385, -0.001593, , , 
1731946995.351241, -0.022146, -0.563386, -9.803508, -0.001830, 0.004000, -0.001773, , , 
1731946995.361250, -0.023493, -0.587477, -9.807548, -0.002930, 0.004185, -0.000802, , , 
1731946995.371236, -0.032920, -0.585532, -9.808296, -0.004031, 0.003185, -0.000860, , , 
1731946995.381251, -0.017508, -0.579397, -9.815928, -0.003021, 0.003046, -0.002013, , , 
1731946995.391280, -0.027234, -0.576554, -9.812037, -0.003880, 0.003473, -0.002313, , , 
1731946995.401292, -0.025588, -0.558896, -9.806500, -0.003842, 0.003474, -0.001185, , , 
1731946995.411220, -0.024840, -0.558896, -9.800664, -0.005027, 0.004055, 0.000480, , , 
1731946995.421226, -0.024840, -0.561590, -9.809044, -0.004454, 0.003578, 0.000960, , , 
1731946995.431248, -0.028431, -0.556502, -9.800515, -0.004165, 0.003100, -0.000489, , , 
1731946995.441290, -0.041749, -0.572813, -9.803957, -0.004367, 0.003699, -0.000427, , , 
1731946995.451239, -0.029179, -0.576404, -9.806500, -0.005474, 0.004625, -0.001937, , , 
1731946995.461221, -0.030676, -0.564583, -9.823559, -0.004442, 0.003457, -0.001394, , , 
1731946995.470831, -0.030975, -0.568024, -9.802759, -0.004461, 0.003940, 0.000291, , , 
1731946995.481228, -0.028431, -0.564882, -9.808895, -0.004325, 0.002932, -0.000974, , , 
1731946995.491274, -0.034716, -0.557101, -9.813982, -0.004580, 0.004120, -0.000944, , , 
1731946995.501240, -0.022895, -0.555156, -9.802909, -0.003482, 0.004407, -0.001935, , , 
1731946995.511225, -0.019603, -0.554856, -9.808446, -0.002376, 0.002487, -0.002594, , , 
1731946995.521229, -0.027234, -0.561590, -9.805004, -0.003205, 0.003442, 0.000123, , , 
1731946995.531255, -0.023792, -0.561590, -9.794529, -0.004503, 0.003204, -0.000560, , , 
1731946995.541282, -0.026635, -0.578499, -9.800066, -0.004503, 0.003321, -0.001025, , , 
1731946995.551303, -0.027084, -0.579098, -9.819070, -0.004528, 0.003972, -0.000344, , , 
1731946995.561241, -0.027234, -0.589123, -9.810989, -0.003469, 0.003138, -0.000656, , , 
1731946995.570752, -0.019752, -0.588525, -9.806500, -0.004588, 0.003964, -0.002307, , , 
1731946995.581249, -0.030227, -0.569371, -9.821763, -0.003921, 0.002933, -0.001638, , , 
1731946995.591283, -0.023343, -0.553958, -9.806201, -0.003018, 0.002801, -0.001112, , , 
1731946995.601313, -0.021847, -0.556203, -9.806650, -0.003210, 0.002099, -0.000603, , , 
1731946995.611305, -0.022745, -0.559944, -9.803657, -0.005952, 0.003561, -0.000664, , , 
1731946995.620574, -0.036212, -0.570867, -9.802161, -0.002654, 0.003514, -0.001020, , , 
1731946995.631236, -0.033369, -0.572663, -9.815628, -0.003770, 0.004051, -0.002020, , , 
1731946995.641279, -0.025588, -0.590620, -9.809194, -0.004191, 0.004323, -0.001712, , , 
1731946995.651216, -0.023194, -0.582090, -9.815479, -0.003832, 0.002987, -0.001547, , , 
1731946995.661312, -0.033369, -0.576853, -9.812785, -0.004962, 0.003262, -0.002281, , , 
1731946995.670467, -0.034566, -0.571616, -9.800814, -0.005716, 0.002834, 0.000284, , , 
1731946995.681233, -0.034716, -0.565481, -9.810690, -0.004977, 0.003469, -0.000757, , , 
1731946995.691279, -0.026785, -0.557849, -9.801113, -0.004289, 0.004235, -0.001311, , , 
1731946995.701209, -0.030975, -0.557250, -9.807847, -0.003735, 0.004495, -0.001397, , , 
1731946995.711224, -0.024092, -0.572513, -9.816227, -0.003978, 0.002743, -0.002062, , , 
1731946995.721246, -0.025738, -0.575955, -9.813533, -0.004980, 0.004680, -0.001072, , , 
1731946995.731225, -0.017208, -0.598401, -9.810241, -0.002665, 0.003294, -0.001748, , , 
1731946995.741286, -0.026785, -0.581941, -9.809493, -0.003619, 0.004084, -0.000676, , , 
1731946995.751303, -0.029030, -0.578948, -9.808895, -0.004262, 0.004367, -0.000552, , , 
1731946995.761251, -0.031873, -0.572065, -9.803508, -0.004906, 0.004675, -0.002887, , , 
1731946995.771241, -0.031873, -0.571316, -9.818022, -0.006488, 0.004408, -0.001113, , , 
1731946995.781248, -0.032322, -0.577751, -9.800814, -0.005205, 0.003006, -0.001827, , , 
1731946995.791287, -0.029628, -0.563236, -9.804555, -0.003288, 0.004436, -0.000481, , , 
1731946995.801238, -0.014814, -0.576105, -9.816376, -0.005680, 0.004326, -0.001760, , , 
1731946995.811302, -0.021099, -0.555754, -9.776423, -0.003330, 0.004116, -0.000815, , , 
1731946995.821239, -0.030526, -0.532560, -9.807697, -0.003127, 0.002260, -0.002105, , , 
1731946995.831272, -0.041599, -0.479289, -9.796175, -0.001979, 0.005179, -0.000633, , , 
1731946995.841293, -0.048632, -0.490811, -9.794529, -0.002029, 0.001519, 0.000388, , , 
1731946995.850977, -0.031574, -0.595408, -9.838373, -0.001041, 0.004560, -0.000182, , , 
1731946995.861308, -0.001796, -0.667234, -9.815179, -0.002103, 0.003435, -0.002563, , , 
1731946995.871237, -0.000449, -0.678756, -9.817125, -0.004507, 0.000697, -0.001051, , , 
1731946995.881243, -0.037858, -0.619051, -9.844808, -0.006145, 0.003505, -0.001017, , , 
1731946995.891191, -0.037709, -0.543334, -9.794829, -0.004791, 0.004708, -0.001462, , , 
1731946995.900513, -0.028431, -0.497096, -9.790340, -0.004740, 0.001966, -0.000328, , , 
1731946995.911306, -0.023792, -0.499490, -9.782409, -0.002317, 0.004329, 0.000486, , , 
1731946995.921240, -0.019603, -0.540042, -9.799617, -0.003098, 0.001889, -0.001055, , , 
1731946995.931126, -0.030376, -0.568623, -9.802460, -0.002769, 0.002725, -0.001128, , , 
1731946995.941287, -0.038607, -0.611419, -9.839421, -0.002055, 0.004772, -0.000689, , , 
1731946995.951306, -0.020351, -0.626084, -9.813084, -0.004418, 0.002112, -0.001653, , , 
1731946995.961360, -0.006734, -0.589123, -9.827300, -0.003923, 0.002856, -0.001624, , , 
1731946995.971241, -0.024391, -0.550217, -9.800365, -0.004351, 0.003422, -0.001133, , , 
1731946995.981083, -0.051176, -0.545279, -9.806800, -0.004008, 0.003614, 0.001151, , , 
1731946995.991301, -0.026336, -0.551265, -9.810989, -0.003525, 0.004232, -0.000833, , , 
1731946996.000695, -0.007931, -0.538995, -9.796624, -0.002207, 0.004263, -0.001320, , , 
1731946996.011243, -0.022446, -0.555604, -9.823409, -0.003231, 0.002921, -0.001573, , , 
1731946996.021328, -0.036661, -0.568473, -9.796774, -0.005288, 0.005334, 0.000261, , , 
1731946996.031072, -0.043694, -0.588375, -9.812336, -0.003137, 0.003476, -0.002305, , , 
1731946996.041308, -0.021548, -0.592715, -9.818022, -0.003425, 0.004651, -0.001922, , , 
1731946996.051245, -0.017957, -0.596605, -9.817424, -0.004242, 0.004437, -0.000084, , , 
1731946996.061313, -0.016460, -0.614113, -9.822362, -0.005239, 0.002722, -0.001905, , , 
1731946996.071245, -0.037559, -0.588974, -9.813084, -0.005535, 0.003407, -0.001974, , , 
1731946996.080944, -0.042647, -0.561141, -9.791986, -0.004316, 0.002924, -0.002038, , , 
1731946996.091310, -0.014365, -0.538546, -9.808595, -0.005192, 0.004654, -0.000490, , , 
1731946996.100834, -0.024391, -0.540042, -9.797223, -0.003362, 0.002991, -0.000059, , , 
1731946996.111369, -0.028880, -0.549918, -9.802610, -0.006014, -0.001346, -0.000681, , , 
1731946996.121322, -0.036362, -0.583287, -9.839720, -0.000853, 0.004859, -0.001706, , , 
1731946996.130828, -0.029928, -0.632668, -9.817424, -0.002059, 0.003232, -0.001433, , , 
1731946996.141303, -0.016610, -0.630722, -9.811588, -0.003555, -0.000701, -0.002056, , , 
1731946996.151250, -0.007931, -0.612317, -9.825504, -0.004296, 0.001695, 0.000194, , , 
1731946996.161358, -0.022146, -0.576254, -9.792434, -0.003102, 0.001837, -0.001868, , , 
1731946996.171295, -0.038607, -0.520589, -9.821464, -0.006077, 0.001137, -0.001795, , , 
1731946996.180729, -0.045789, -0.509366, -9.782558, -0.003921, 0.006111, -0.000495, , , 
1731946996.191323, -0.034866, -0.523881, -9.772982, -0.004458, 0.004205, -0.000642, , , 
1731946996.201244, -0.024840, -0.552911, -9.793781, -0.004099, 0.007168, -0.001101, , , 
1731946996.211311, -0.013467, -0.602291, -9.824457, -0.003838, 0.003256, -0.002074, , , 
1731946996.221272, -0.027683, -0.623989, -9.816376, -0.005606, 0.002058, -0.000154, , , 
1731946996.230661, -0.030825, -0.624138, -9.832986, -0.003945, 0.003649, -0.000584, , , 
1731946996.241315, -0.020650, -0.593313, -9.814730, -0.006206, 0.001874, -0.001715, , , 
1731946996.251263, -0.017957, -0.542885, -9.784953, -0.003703, 0.004838, -0.001784, , , 
1731946996.261315, -0.045639, -0.514304, -9.789741, -0.003005, 0.001987, -0.001862, , , 
1731946996.271247, -0.046537, -0.518644, -9.792285, -0.003015, 0.005589, -0.001445, , , 
1731946996.280556, -0.033519, -0.541688, -9.798570, -0.001555, 0.002474, -0.001485, , , 
1731946996.291268, -0.010175, -0.581043, -9.809643, -0.003183, 0.003094, -0.001024, , , 
1731946996.300284, -0.015413, -0.603937, -9.834034, -0.002525, 0.002942, 0.001221, , , 
1731946996.311247, -0.025139, -0.624288, -9.824756, -0.003690, 0.003193, -0.002065, , , 
1731946996.321242, -0.028431, -0.594809, -9.817274, -0.004615, 0.003401, -0.001415, , , 
1731946996.330485, -0.023493, -0.568174, -9.808745, -0.004160, 0.004291, -0.000925, , , 
1731946996.341308, -0.018705, -0.554108, -9.814431, -0.005996, 0.001023, 0.000238, , , 
1731946996.351308, -0.029179, -0.538695, -9.800964, -0.005016, 0.003383, -0.000985, , , 
1731946996.361319, -0.035763, -0.535852, -9.803208, -0.004471, 0.002604, 0.000439, , , 
1731946996.371271, -0.027982, -0.545728, -9.801562, -0.003378, 0.002291, 0.000435, , , 
1731946996.380405, -0.021997, -0.558597, -9.810541, -0.003290, 0.003596, -0.000290, , , 
1731946996.391302, -0.013318, -0.590919, -9.800365, -0.004279, 0.003114, -0.001715, , , 
1731946996.401322, -0.023942, -0.596755, -9.805303, -0.003860, 0.006299, -0.000892, , , 
1731946996.411241, -0.033818, -0.590470, -9.805154, -0.004518, 0.003849, 0.000806, , , 
1731946996.421241, -0.030825, -0.579098, -9.805752, -0.004261, 0.002676, 0.000153, , , 
1731946996.430331, -0.015862, -0.559345, -9.809643, -0.006074, 0.003805, -0.000935, , , 
1731946996.441314, -0.029179, -0.555604, -9.786599, -0.003219, 0.003859, -0.001986, , , 
1731946996.451250, -0.029179, -0.541688, -9.802909, -0.004046, 0.004079, -0.001340, , , 
1731946996.461248, -0.030676, -0.551564, -9.798869, -0.004512, 0.003895, -0.000858, , , 
1731946996.471281, -0.022595, -0.577003, -9.799318, -0.003426, 0.005381, -0.001450, , , 
1731946996.480412, -0.010924, -0.603488, -9.815179, -0.004466, 0.004597, -0.000040, , , 
1731946996.491306, -0.019453, -0.604536, -9.813384, -0.004417, 0.004035, -0.001121, , , 
1731946996.501251, -0.025139, -0.594809, -9.818022, -0.005206, 0.002305, -0.000236, , , 
1731946996.511249, -0.035015, -0.556652, -9.819070, -0.005811, 0.005429, -0.000746, , , 
1731946996.521273, -0.025738, -0.541538, -9.807997, -0.005004, 0.004720, 0.001376, , , 
1731946996.530313, -0.017208, -0.537199, -9.796624, -0.003177, 0.001703, -0.000523, , , 
1731946996.541297, -0.020201, -0.534057, -9.808146, -0.003529, 0.003115, 0.000158, , , 
1731946996.551306, -0.036811, -0.534506, -9.786898, -0.005028, 0.005548, -0.001105, , , 
1731946996.561270, -0.025289, -0.571017, -9.816825, -0.003474, 0.008407, -0.001750, , , 
1731946996.571300, -0.023643, -0.585831, -9.810541, -0.004249, 0.002781, -0.000643, , , 
1731946996.581249, -0.023493, -0.594809, -9.828946, -0.003773, 0.002900, -0.001241, , , 
1731946996.591315, -0.035464, -0.585981, -9.827450, -0.004008, 0.003239, -0.001466, , , 
1731946996.601309, -0.038158, -0.565780, -9.786599, -0.003229, 0.002974, -0.001346, , , 
1731946996.611251, -0.021398, -0.549619, -9.800515, -0.003267, 0.003333, 0.000425, , , 
1731946996.621285, -0.008829, -0.520290, -9.782558, -0.001856, 0.003755, -0.002409, , , 
1731946996.631252, -0.029030, -0.544232, -9.809792, -0.004023, 0.002819, 0.000830, , , 
1731946996.640992, -0.035464, -0.545579, -9.810092, -0.002606, 0.006217, 0.000373, , , 
1731946996.651258, -0.025588, -0.590470, -9.822512, -0.003889, 0.001295, -0.001060, , , 
1731946996.661258, -0.013617, -0.602291, -9.800814, -0.003409, 0.003755, -0.000056, , , 
1731946996.671245, -0.021249, -0.602591, -9.810541, -0.004843, 0.004058, 0.000022, , , 
1731946996.681263, -0.023792, -0.574908, -9.806949, -0.003194, 0.003793, -0.001827, , , 
1731946996.691304, -0.044293, -0.531812, -9.808895, -0.004139, 0.003928, -0.003304, , , 
1731946996.701258, -0.039504, -0.534057, -9.797821, -0.002873, 0.002877, -0.000084, , , 
1731946996.711255, -0.034566, -0.521637, -9.784354, -0.003312, 0.003157, -0.001722, , , 
1731946996.721318, -0.032920, -0.543933, -9.813683, -0.002316, 0.002558, -0.000679, , , 
1731946996.731251, -0.027833, -0.574758, -9.810840, -0.003917, 0.003943, -0.000256, , , 
1731946996.741296, -0.026635, -0.597952, -9.816227, -0.002216, 0.004237, -0.000069, , , 
1731946996.751259, -0.031274, -0.618751, -9.822063, -0.003041, 0.002610, -0.000236, , , 
1731946996.761297, -0.033220, -0.594510, -9.810690, -0.004190, 0.002018, -0.002474, , , 
1731946996.771332, -0.032621, -0.558148, -9.808146, -0.005106, 0.002899, -0.002317, , , 
1731946996.780551, -0.038607, -0.539743, -9.810989, -0.003358, 0.004119, -0.000058, , , 
1731946996.791254, -0.041899, -0.533458, -9.809792, -0.004054, 0.005042, -0.001880, , , 
1731946996.801265, -0.027533, -0.544681, -9.801712, -0.003772, 0.004747, -0.000691, , , 
1731946996.811349, -0.022146, -0.574309, -9.809194, -0.002005, 0.002982, -0.000441, , , 
1731946996.821279, -0.020051, -0.583587, -9.806051, -0.004174, 0.002720, -0.000664, , , 
1731946996.831263, -0.036811, -0.604237, -9.821913, -0.002230, 0.001981, 0.000432, , , 
1731946996.840467, -0.027683, -0.592565, -9.832986, -0.002047, 0.002895, -0.001528, , , 
1731946996.851277, -0.017358, -0.582539, -9.814581, -0.003307, 0.003023, -0.000799, , , 
1731946996.861294, -0.021997, -0.575955, -9.799617, -0.003413, 0.002923, 0.000848, , , 
1731946996.871073, -0.028431, -0.556652, -9.792734, -0.004035, 0.004435, -0.000453, , , 
1731946996.881306, -0.040701, -0.548272, -9.816825, -0.003455, 0.002276, 0.000424, , , 
1731946996.891264, -0.029030, -0.547225, -9.799168, -0.003580, 0.003908, -0.002594, , , 
1731946996.901290, -0.029329, -0.571466, -9.797073, -0.003497, 0.005124, 0.000009, , , 
1731946996.911369, -0.023194, -0.591368, -9.818172, -0.003341, 0.005422, -0.000373, , , 
1731946996.921337, -0.029179, -0.577452, -9.818920, -0.002271, 0.004220, -0.000843, , , 
1731946996.930596, -0.022296, -0.601543, -9.802610, -0.003185, 0.002102, 0.000942, , , 
1731946996.941289, -0.022595, -0.588225, -9.797971, -0.002748, 0.003055, -0.002064, , , 
1731946996.951350, -0.002693, -0.569970, -9.804854, -0.004463, 0.002972, -0.000383, , , 
1731946996.961307, -0.027683, -0.555305, -9.813683, -0.004114, 0.002953, -0.002444, , , 
1731946996.971332, -0.028581, -0.555904, -9.800066, -0.004728, 0.003348, -0.000501, , , 
1731946996.981343, -0.033968, -0.553659, -9.799318, -0.004257, 0.003736, -0.001852, , , 
1731946996.990272, -0.025588, -0.551863, -9.799767, -0.003775, 0.003741, -0.000048, , , 
1731946997.001278, -0.024989, -0.575955, -9.802909, -0.002935, 0.002918, -0.000601, , , 
1731946997.011003, -0.016610, -0.594211, -9.815778, -0.003409, 0.004607, -0.001513, , , 
1731946997.021266, -0.026486, -0.597653, -9.814730, -0.003366, 0.003892, -0.001293, , , 
1731946997.031336, -0.031574, -0.583437, -9.817125, -0.004140, 0.003104, -0.001008, , , 
1731946997.041342, -0.019303, -0.558747, -9.788993, -0.004583, 0.004462, 0.000094, , , 
1731946997.051339, -0.008679, -0.540341, -9.814431, -0.004241, 0.003195, -0.000888, , , 
1731946997.061346, -0.037559, -0.532261, -9.798719, -0.003018, 0.002575, 0.001125, , , 
1731946997.071297, -0.030975, -0.543633, -9.802161, -0.004169, 0.003052, 0.000180, , , 
1731946997.081272, -0.024391, -0.569670, -9.808745, -0.002533, 0.005107, -0.001017, , , 
1731946997.091271, -0.023792, -0.586280, -9.822212, -0.004173, 0.003675, -0.001439, , , 
1731946997.101265, -0.029329, -0.592116, -9.824756, -0.004116, 0.002616, -0.000723, , , 
1731946997.111262, -0.036362, -0.577152, -9.826253, -0.003771, 0.002595, 0.000074, , , 
1731946997.121271, -0.037709, -0.567276, -9.815179, -0.004373, 0.002614, 0.000087, , , 
1731946997.131272, -0.010924, -0.536002, -9.795876, -0.003005, 0.006149, -0.001952, , , 
1731946997.141255, -0.022745, -0.549320, -9.797971, -0.003966, 0.002583, -0.000604, , , 
1731946997.151267, -0.035614, -0.548721, -9.797821, -0.001931, 0.003378, -0.001803, , , 
1731946997.161310, -0.032920, -0.564433, -9.818771, -0.004090, 0.001109, -0.000854, , , 
1731946997.171269, -0.013168, -0.574459, -9.803957, -0.002350, 0.004150, -0.002883, , , 
1731946997.181273, -0.025438, -0.590021, -9.813982, -0.002326, 0.003228, -0.001358, , , 
1731946997.191261, -0.024690, -0.584784, -9.807099, -0.003537, 0.004098, 0.000660, , , 
1731946997.201267, -0.022146, -0.580444, -9.826851, -0.003079, 0.004269, -0.001451, , , 
1731946997.211263, -0.028282, -0.568623, -9.802759, -0.002342, 0.004021, -0.000081, , , 
1731946997.221265, -0.022296, -0.567426, -9.809493, -0.003960, 0.001776, -0.001048, , , 
1731946997.231271, -0.032920, -0.565181, -9.806500, -0.002739, 0.003128, -0.000154, , , 
1731946997.241265, -0.016909, -0.570867, -9.800365, -0.004603, 0.003528, -0.000625, , , 
1731946997.251346, -0.024840, -0.577152, -9.806949, -0.004134, 0.003055, -0.000675, , , 
1731946997.261324, -0.022296, -0.567725, -9.797223, -0.003034, 0.005185, -0.002329, , , 
1731946997.271264, -0.018555, -0.584484, -9.819968, -0.002878, 0.001546, -0.000304, , , 
1731946997.281264, -0.022745, -0.579995, -9.805154, -0.002793, 0.002962, 0.000774, , , 
1731946997.291265, -0.023792, -0.562188, -9.825055, -0.004757, 0.003547, -0.000279, , , 
1731946997.301270, -0.035165, -0.572065, -9.814282, -0.003945, 0.003004, -0.001981, , , 
1731946997.311327, -0.032022, -0.570718, -9.819369, -0.004296, 0.004021, -0.001265, , , 
1731946997.320448, -0.022446, -0.563535, -9.818471, -0.003177, 0.002831, -0.000977, , , 
1731946997.331282, -0.016909, -0.560393, -9.802161, -0.003807, 0.003694, 0.000087, , , 
1731946997.341262, -0.020650, -0.570119, -9.811738, -0.003530, 0.002953, -0.000584, , , 
1731946997.351268, -0.020650, -0.566827, -9.801113, -0.003903, 0.004655, -0.000781, , , 
1731946997.361328, -0.023942, -0.572214, -9.807398, -0.004586, 0.004155, -0.001584, , , 
1731946997.371284, -0.023194, -0.574309, -9.800066, -0.004821, 0.004217, -0.001093, , , 
1731946997.381279, -0.019752, -0.582539, -9.812785, -0.003534, 0.004307, -0.000508, , , 
1731946997.391265, -0.030376, -0.563386, -9.819668, -0.005308, 0.003046, -0.001291, , , 
1731946997.401260, -0.027833, -0.555604, -9.806051, -0.004004, 0.003520, -0.000050, , , 
1731946997.411302, -0.011372, -0.552462, -9.794529, -0.003232, 0.003842, -0.000283, , , 
1731946997.421329, -0.019303, -0.556353, -9.805902, -0.002103, 0.004647, -0.000470, , , 
1731946997.431277, -0.024241, -0.575207, -9.821314, -0.003701, 0.004571, -0.001011, , , 
1731946997.441261, -0.024391, -0.568024, -9.816975, -0.003192, 0.004370, 0.000083, , , 
1731946997.451279, -0.017208, -0.577900, -9.807099, -0.005080, 0.003290, -0.001066, , , 
1731946997.461286, -0.025887, -0.571316, -9.816376, -0.003887, 0.003460, -0.001363, , , 
1731946997.471285, -0.034566, -0.568324, -9.805004, -0.004931, 0.004663, -0.001114, , , 
1731946997.481275, -0.024541, -0.556353, -9.800664, -0.003556, 0.004042, -0.000534, , , 
1731946997.491261, -0.039504, -0.550068, -9.807847, -0.002728, 0.003857, -0.003203, , , 
1731946997.501267, -0.035614, -0.569670, -9.808146, -0.002561, 0.004200, -0.001965, , , 
1731946997.511305, -0.023044, -0.572513, -9.807697, -0.001984, 0.003023, -0.000132, , , 
1731946997.521274, -0.024840, -0.574908, -9.797971, -0.002413, 0.004620, -0.000567, , , 
1731946997.531272, -0.035464, -0.575955, -9.819519, -0.004053, 0.004905, -0.001097, , , 
1731946997.541275, -0.032621, -0.583736, -9.816077, -0.003432, 0.003373, -0.001608, , , 
1731946997.551273, -0.022595, -0.587926, -9.813234, -0.004050, 0.003356, -0.001617, , , 
1731946997.561314, -0.026635, -0.569371, -9.817574, -0.004641, 0.002213, -0.000808, , , 
1731946997.571271, -0.018555, -0.572513, -9.807997, -0.003892, 0.003063, -0.000187, , , 
1731946997.581273, -0.026935, -0.565929, -9.806949, -0.003461, 0.003510, -0.001554, , , 
1731946997.591272, -0.030077, -0.547374, -9.810391, -0.002949, 0.003459, -0.000467, , , 
1731946997.601266, -0.020351, -0.549320, -9.806650, -0.003241, 0.003885, -0.001453, , , 
1731946997.611355, -0.021099, -0.587328, -9.831191, -0.004267, 0.001846, -0.001656, , , 
1731946997.621274, -0.029778, -0.573112, -9.813683, -0.003492, 0.002147, -0.001431, , , 
1731946997.631280, -0.025289, -0.588525, -9.802460, -0.004331, 0.004155, -0.001239, , , 
1731946997.641262, -0.019004, -0.584484, -9.819369, -0.003956, 0.003508, -0.002108, , , 
1731946997.651322, -0.028282, -0.582090, -9.817125, -0.004776, 0.004204, -0.001830, , , 
1731946997.661316, -0.022296, -0.586879, -9.813234, -0.003897, 0.002247, -0.000680, , , 
1731946997.671281, -0.034566, -0.571616, -9.812935, -0.003915, 0.003120, -0.000612, , , 
1731946997.681272, -0.045490, -0.570419, -9.810541, -0.003919, 0.002458, -0.001636, , , 
1731946997.691343, -0.023792, -0.556502, -9.811738, -0.004335, 0.003182, -0.001470, , , 
1731946997.701274, -0.023194, -0.582240, -9.816227, -0.002905, 0.005251, 0.001199, , , 
1731946997.711372, -0.024391, -0.561291, -9.798420, -0.003666, 0.004234, -0.002697, , , 
1731946997.721274, -0.014814, -0.579846, -9.830742, -0.003348, 0.001250, -0.000305, , , 
1731946997.731286, -0.021697, -0.588525, -9.815179, -0.003655, 0.002825, -0.000303, , , 
1731946997.741279, -0.029778, -0.566528, -9.808595, -0.004034, 0.005860, 0.000201, , , 
1731946997.751311, -0.018854, -0.567725, -9.820566, -0.003721, 0.002339, -0.001581, , , 
1731946997.761284, -0.029778, -0.561740, -9.794230, -0.004026, 0.004449, -0.000868, , , 
1731946997.771287, -0.021847, -0.551564, -9.797223, -0.004848, 0.003297, -0.000246, , , 
1731946997.781276, -0.023643, -0.559794, -9.812187, -0.001226, 0.004677, 0.000032, , , 
1731946997.791336, -0.029329, -0.571915, -9.819519, -0.003787, 0.002006, -0.002850, , , 
1731946997.801334, -0.025738, -0.578948, -9.808595, -0.003365, 0.002272, 0.001036, , , 
1731946997.811268, -0.021249, -0.595258, -9.827150, -0.003556, 0.004292, -0.000537, , , 
1731946997.821285, -0.012719, -0.602142, -9.819070, -0.004522, 0.004335, -0.000621, , , 
1731946997.831324, -0.007931, -0.575656, -9.819070, -0.005659, 0.003313, -0.000333, , , 
1731946997.841281, -0.020351, -0.569820, -9.821015, -0.005818, 0.001352, -0.001822, , , 
1731946997.851287, -0.018106, -0.555305, -9.809792, -0.004754, 0.004984, -0.000942, , , 
1731946997.861275, -0.027234, -0.550966, -9.798719, -0.003802, 0.003218, -0.001042, , , 
1731946997.870633, -0.038008, -0.554856, -9.815628, -0.002596, 0.004633, 0.000028, , , 
1731946997.881279, -0.018405, -0.571915, -9.818621, -0.003966, 0.003355, -0.000748, , , 
1731946997.890666, -0.030077, -0.588076, -9.815329, -0.003137, 0.005032, -0.000416, , , 
1731946997.901299, -0.025588, -0.598850, -9.817873, -0.003383, 0.003166, -0.000711, , , 
1731946997.911256, -0.033818, -0.590171, -9.814132, -0.002970, 0.002256, -0.001967, , , 
1731946997.921287, -0.036960, -0.581342, -9.812336, -0.003202, 0.004022, 0.000391, , , 
1731946997.931283, -0.025887, -0.569970, -9.809792, -0.003312, 0.004229, -0.000759, , , 
1731946997.941346, -0.021847, -0.558148, -9.810840, -0.006520, 0.003400, -0.001242, , , 
1731946997.951354, -0.019303, -0.561889, -9.795278, -0.004102, 0.004873, -0.002622, , , 
1731946997.961281, -0.039355, -0.564732, -9.800664, -0.002745, 0.004765, -0.001213, , , 
1731946997.971276, -0.027384, -0.561740, -9.794380, -0.004098, 0.003611, -0.001485, , , 
1731946997.981278, -0.022895, -0.572214, -9.812486, -0.004778, 0.003715, -0.001731, , , 
1731946997.991336, -0.025588, -0.581192, -9.811887, -0.003740, 0.003610, -0.001522, , , 
1731946998.001297, -0.030376, -0.578200, -9.815778, -0.004477, 0.001807, -0.000071, , , 
1731946998.011219, -0.030077, -0.579696, -9.818621, -0.004770, 0.002532, 0.000431, , , 
1731946998.021279, -0.019303, -0.574010, -9.809493, -0.003414, 0.003420, -0.002177, , , 
1731946998.030954, -0.033818, -0.555305, -9.800066, -0.005061, 0.003076, -0.003088, , , 
1731946998.041335, -0.029778, -0.544831, -9.806800, -0.005048, 0.004087, -0.001424, , , 
1731946998.051280, -0.027084, -0.558747, -9.805154, -0.002336, 0.004310, -0.000892, , , 
1731946998.061209, -0.026486, -0.568473, -9.806500, -0.002713, 0.003578, -0.002584, , , 
1731946998.071278, -0.020800, -0.582838, -9.812336, -0.003013, 0.004205, -0.000868, , , 
1731946998.081281, -0.027683, -0.589423, -9.822661, -0.003684, 0.004390, -0.002010, , , 
1731946998.091284, -0.025887, -0.578349, -9.817873, -0.005700, 0.005017, -0.000795, , , 
1731946998.101279, -0.024989, -0.583287, -9.808895, -0.003089, 0.004131, -0.000780, , , 
1731946998.111137, -0.033519, -0.568324, -9.804405, -0.006813, 0.003841, -0.002190, , , 
1731946998.121287, -0.022296, -0.557699, -9.805752, -0.003152, 0.001733, -0.001905, , , 
1731946998.131284, -0.032771, -0.543185, -9.801562, -0.003400, 0.004514, 0.000014, , , 
1731946998.141279, -0.028431, -0.546477, -9.811289, -0.002039, 0.003528, -0.001259, , , 
1731946998.151287, -0.032621, -0.563984, -9.813234, -0.002519, 0.004188, -0.000080, , , 
1731946998.161040, -0.015113, -0.577152, -9.809194, -0.003351, 0.003305, -0.002857, , , 
1731946998.171313, -0.025887, -0.585233, -9.812037, -0.004843, 0.003855, -0.001013, , , 
1731946998.180692, -0.021249, -0.587178, -9.818771, -0.003967, 0.004165, 0.000664, , , 
1731946998.191277, -0.026785, -0.582240, -9.813234, -0.004686, 0.002149, -0.000495, , , 
1731946998.201290, -0.028431, -0.559345, -9.799168, -0.005634, 0.004351, -0.000894, , , 
1731946998.210866, -0.029778, -0.555006, -9.805004, -0.003143, 0.002810, -0.002680, , , 
1731946998.221278, -0.019902, -0.550217, -9.799318, -0.004444, 0.004339, 0.000862, , , 
1731946998.231290, -0.033668, -0.553509, -9.805902, -0.002409, 0.003755, -0.001318, , , 
1731946998.241289, -0.026635, -0.577302, -9.809194, -0.002349, 0.004650, 0.000438, , , 
1731946998.251302, -0.014515, -0.593463, -9.812785, -0.003416, 0.003784, 0.000964, , , 
1731946998.260897, -0.015712, -0.587627, -9.807099, -0.004649, 0.003651, -0.001301, , , 
1731946998.271357, -0.027833, -0.580444, -9.803208, -0.003456, 0.003808, -0.003046, , , 
1731946998.281293, -0.024989, -0.576254, -9.824906, -0.003922, 0.004287, -0.001318, , , 
1731946998.291290, -0.025289, -0.562637, -9.822661, -0.003980, 0.004033, -0.000477, , , 
1731946998.301280, -0.031873, -0.563086, -9.802011, -0.004738, 0.003185, -0.001521, , , 
1731946998.310812, -0.026935, -0.551714, -9.784504, -0.002531, 0.002594, -0.001962, , , 
1731946998.321325, -0.027683, -0.557101, -9.801413, -0.004874, 0.004875, -0.000345, , , 
1731946998.331306, -0.028581, -0.579696, -9.800664, -0.003404, 0.003251, -0.001284, , , 
1731946998.341279, -0.023493, -0.594959, -9.817424, -0.002992, 0.002754, 0.000207, , , 
1731946998.351284, -0.019154, -0.588375, -9.817424, -0.004507, 0.003529, -0.000298, , , 
1731946998.360641, -0.014814, -0.583886, -9.799916, -0.005115, 0.004729, -0.000228, , , 
1731946998.371311, -0.016161, -0.578798, -9.809942, -0.005387, 0.002050, -0.000658, , , 
1731946998.381285, -0.024840, -0.558448, -9.818322, -0.004941, 0.003390, -0.000454, , , 
1731946998.391291, -0.031723, -0.555604, -9.806949, -0.003185, 0.003871, -0.000370, , , 
1731946998.401279, -0.031424, -0.546925, -9.800515, -0.003280, 0.004913, 0.000731, , , 
1731946998.410517, -0.031424, -0.546925, -9.800515, -0.003454, 0.003630, -0.001930, , , 
1731946998.421290, -0.031873, -0.573561, -9.802460, -0.003510, 0.003225, -0.000690, , , 
1731946998.431304, -0.034716, -0.584036, -9.812336, -0.003819, 0.002751, -0.000237, , , 
1731946998.441294, -0.026486, -0.587477, -9.818771, -0.004310, 0.004326, 0.000606, , , 
1731946998.451285, -0.027982, -0.581791, -9.814132, -0.002825, 0.003577, 0.000033, , , 
1731946998.460475, -0.027982, -0.581791, -9.814132, -0.002825, 0.003577, 0.000033, , , 
1731946998.471296, -0.032471, -0.559345, -9.803208, -0.004421, 0.003872, 0.001310, , , 
1731946998.481381, -0.030975, -0.555604, -9.803208, -0.003842, 0.003180, -0.000736, , , 
1731946998.491356, -0.018256, -0.562188, -9.803508, -0.004608, 0.004165, -0.000176, , , 
1731946998.501294, -0.025139, -0.557250, -9.813234, -0.005198, 0.004718, -0.001744, , , 
1731946998.510521, -0.025139, -0.557250, -9.813234, -0.005198, 0.004718, -0.001744, , , 
1731946998.521055, -0.019453, -0.572364, -9.809942, -0.004731, 0.001711, -0.001279, , , 
1731946998.530647, -0.019453, -0.572364, -9.809942, -0.003916, 0.004081, -0.001092, , , 
1731946998.541218, -0.026336, -0.572214, -9.820267, -0.005706, 0.002588, 0.000125, , , 
1731946998.551297, -0.023792, -0.560991, -9.812486, -0.004513, 0.004637, -0.001949, , , 
1731946998.560746, -0.007781, -0.558148, -9.821464, -0.006352, 0.004434, -0.000468, , , 
1731946998.571051, -0.027683, -0.559345, -9.808895, -0.003475, 0.003585, -0.000648, , , 
1731946998.581295, -0.035015, -0.579696, -9.818771, -0.002381, 0.003143, -0.000772, , , 
1731946998.591282, -0.024241, -0.588974, -9.800216, -0.004129, 0.002425, -0.001809, , , 
1731946998.601283, -0.028431, -0.582390, -9.794978, -0.003460, 0.004053, -0.000097, , , 
1731946998.611324, -0.022296, -0.563535, -9.812785, -0.002611, 0.003434, -0.000837, , , 
1731946998.621289, -0.027533, -0.571017, -9.820716, -0.004357, 0.002810, -0.001112, , , 
1731946998.631308, -0.029179, -0.567575, -9.818621, -0.003520, 0.003210, -0.001251, , , 
1731946998.641296, -0.017957, -0.578948, -9.815479, -0.002636, 0.003633, -0.000555, , , 
1731946998.651298, -0.016909, -0.571616, -9.806500, -0.003204, 0.003174, 0.000664, , , 
1731946998.661315, -0.021398, -0.574309, -9.818322, -0.002791, 0.002620, -0.000576, , , 
1731946998.671251, -0.031424, -0.576703, -9.814730, -0.004656, 0.003099, -0.001744, , , 
1731946998.681285, -0.024840, -0.584036, -9.810989, -0.003518, 0.002582, -0.001635, , , 
1731946998.691364, -0.025887, -0.576703, -9.804555, -0.001903, 0.002805, 0.000395, , , 
1731946998.701363, -0.022296, -0.573112, -9.805303, -0.005547, 0.003340, -0.001005, , , 
1731946998.711328, -0.024840, -0.572364, -9.802161, -0.004533, 0.004067, -0.001046, , , 
1731946998.721296, -0.021847, -0.567127, -9.813833, -0.003005, 0.003377, -0.002121, , , 
1731946998.731293, -0.030825, -0.562188, -9.805752, -0.002590, 0.003474, -0.000487, , , 
1731946998.741298, -0.031274, -0.551265, -9.806650, -0.003309, 0.003254, -0.001732, , , 
1731946998.750831, -0.031274, -0.551265, -9.806650, -0.003309, 0.003254, -0.001732, , , 
1731946998.761343, -0.022146, -0.579247, -9.807249, -0.004337, 0.004474, -0.001658, , , 
1731946998.771297, -0.024989, -0.584335, -9.809643, -0.004335, 0.004093, 0.000643, , , 
1731946998.781289, -0.025738, -0.588225, -9.815179, -0.002601, 0.003574, -0.001495, , , 
1731946998.791292, -0.016759, -0.586130, -9.818022, -0.004745, 0.003055, 0.000215, , , 
1731946998.801287, -0.018555, -0.590919, -9.808745, -0.004426, 0.002341, -0.001985, , , 
1731946998.811308, -0.017957, -0.565331, -9.806351, -0.003158, 0.004332, -0.000551, , , 
1731946998.820681, -0.017957, -0.565331, -9.806351, -0.003158, 0.004332, -0.000551, , , 
1731946998.831312, -0.024241, -0.547075, -9.796774, -0.001517, 0.004581, -0.001991, , , 
1731946998.841291, -0.030676, -0.561889, -9.791537, -0.003876, 0.003701, 0.000270, , , 
1731946998.851288, -0.022745, -0.578050, -9.799916, -0.003335, 0.004250, -0.001323, , , 
1731946998.861337, -0.029030, -0.596306, -9.812636, -0.002770, 0.002574, -0.000494, , , 
1731946998.871290, -0.026336, -0.577003, -9.819968, -0.004463, 0.004630, -0.001655, , , 
1731946998.881293, -0.030825, -0.590470, -9.792883, -0.004302, 0.003398, -0.000039, , , 
1731946998.891285, -0.021997, -0.568024, -9.797073, -0.004693, 0.005553, 0.000897, , , 
1731946998.901299, -0.023194, -0.556353, -9.807697, -0.004263, 0.003077, -0.002287, , , 
1731946998.911362, -0.030825, -0.557101, -9.799767, -0.001759, 0.004283, -0.001186, , , 
1731946998.920502, -0.030825, -0.557101, -9.799767, -0.001759, 0.004283, -0.001186, , , 
1731946998.931348, -0.036661, -0.562488, -9.810541, -0.002404, 0.004022, -0.000749, , , 
1731946998.941288, -0.007482, -0.575955, -9.799168, -0.003705, 0.002955, -0.001852, , , 
1731946998.951284, -0.018106, -0.585831, -9.807398, -0.003370, 0.003296, -0.000878, , , 
1731946998.961341, -0.029179, -0.583886, -9.800066, -0.003378, 0.003132, -0.000976, , , 
1731946998.970428, -0.029179, -0.583886, -9.800066, -0.003378, 0.003132, -0.000976, , , 
1731946998.981335, -0.027384, -0.582090, -9.806351, -0.003393, 0.003346, -0.002502, , , 
1731946998.991317, -0.030825, -0.573262, -9.815030, -0.004867, 0.003788, -0.001841, , , 
1731946999.001307, -0.039953, -0.540192, -9.797073, -0.004024, 0.002186, -0.001516, , , 
1731946999.012117, -0.032920, -0.560094, -9.801113, -0.003198, 0.003251, 0.000155, , , 
1731946999.021342, -0.032920, -0.560094, -9.801113, -0.003198, 0.003251, 0.000155, , , 
1731946999.031364, -0.024989, -0.563984, -9.811738, -0.003692, 0.003620, -0.001049, , , 
1731946999.040873, -0.024989, -0.563984, -9.811738, -0.003692, 0.003620, -0.001049, , , 
1731946999.051299, -0.019154, -0.573711, -9.801263, -0.005810, 0.002940, -0.000779, , , 
1731946999.061368, -0.034267, -0.586130, -9.800066, -0.005049, 0.003365, -0.000931, , , 
1731946999.071292, -0.017358, -0.585382, -9.807398, -0.005049, 0.003365, -0.000931, , , 
1731946999.081300, -0.017807, -0.572962, -9.816376, -0.004574, 0.004113, -0.001772, , , 
1731946999.090894, -0.030077, -0.556652, -9.817873, -0.004197, 0.003547, -0.001487, , , 
1731946999.101326, -0.024092, -0.548571, -9.813683, -0.003773, 0.004235, -0.000957, , , 
1731946999.111310, -0.038158, -0.540341, -9.791537, 0.011944, 0.103955, -0.002023, , , 
1731946999.121313, -0.090680, -0.514454, -9.909002, 0.048047, 0.190522, -0.006915, , , 
1731946999.131333, -0.117166, -0.604686, -10.269629, -0.048501, -0.141716, -0.002501, , , 
1731946999.140912, 0.313042, -0.632069, -8.677784, -0.048501, -0.141716, -0.002501, , , 
1731946999.151327, -0.167594, -0.568024, -10.491541, 0.002074, 0.025774, -0.002326, , , 
1731946999.161298, 0.060304, -0.594061, -9.452159, -0.029657, -0.073658, -0.004117, , , 
1731946999.170685, -0.101005, -0.554707, -10.077793, -0.000250, 0.024561, -0.001257, , , 
1731946999.181340, -0.048632, -0.551265, -9.910199, 0.008493, 0.050153, -0.000894, , , 
1731946999.190895, 0.024690, -0.535553, -9.639654, 0.001357, 0.011384, 0.004965, , , 
1731946999.201322, 0.058658, -0.588824, -9.508871, -0.029598, -0.096421, 0.001413, , , 
1731946999.211337, -0.133626, -0.525827, -10.200047, 0.012136, 0.040743, -0.001759, , , 
1731946999.221326, 0.044143, -0.580444, -9.576657, -0.013408, -0.055152, 0.000284, , , 
1731946999.231362, -0.011073, -0.581941, -9.805453, -0.009659, -0.039099, -0.000781, , , 
1731946999.240844, 0.006734, -0.590171, -9.733477, -0.023053, -0.101221, 0.001542, , , 
1731946999.251325, -0.093224, -0.589423, -9.929652, -0.013206, -0.061394, -0.001233, , , 
1731946999.261308, -0.099659, -0.562488, -9.938481, -0.002912, 0.014285, 0.000472, , , 
1731946999.271296, -0.061052, -0.554258, -9.837924, 0.000403, 0.034873, 0.003007, , , 
1731946999.281301, -0.020500, -0.557400, -9.795278, 0.001119, 0.026603, 0.001644, , , 
1731946999.291095, -0.023343, -0.540192, -9.769989, -0.003574, 0.008383, 0.007018, , , 
1731946999.301302, -0.001945, -0.449960, -9.751583, -0.008325, -0.020653, 0.055200, , , 
1731946999.311303, -0.008080, -0.347907, -9.744850, -0.015344, -0.057673, 0.189400, , , 
1731946999.321302, -0.114622, -0.696114, -9.857078, -0.008194, -0.035177, 0.150930, , , 
1731946999.331341, -0.074071, -0.618303, -9.814581, -0.010307, -0.037124, 0.120806, , , 
1731946999.341062, -0.101155, -0.565032, -9.841964, -0.004787, -0.018336, 0.139059, , , 
1731946999.351317, -0.112378, -0.560991, -9.842862, -0.005054, -0.007384, 0.156519, , , 
1731946999.361303, -0.228796, -0.599448, -9.849446, -0.002256, 0.013019, 0.132001, , , 
1731946999.371299, -0.284461, -0.553061, -9.815928, 0.001821, 0.027959, 0.113736, , , 
1731946999.381194, -0.250793, -0.560393, -9.802460, 0.001815, 0.041092, 0.125965, , , 
1731946999.391076, -0.282665, -0.629825, -9.799617, -0.000978, 0.022457, 0.116110, , , 
1731946999.401298, -0.402675, -0.572214, -9.818621, 0.001701, 0.034255, 0.133901, , , 
1731946999.411314, -0.399981, -0.612167, -9.784953, 0.000246, 0.016911, 0.121838, , , 
1731946999.421293, -0.270844, -0.624288, -9.815030, -0.001002, 0.017309, 0.103632, , , 
1731946999.431256, -0.402824, -0.620547, -9.769690, -0.007365, -0.014293, 0.076697, , , 
1731946999.441071, -0.630423, -0.604087, -9.824756, -0.005359, -0.002528, 0.072299, , , 
1731946999.451307, -0.622492, -0.498892, -9.792734, -0.007509, -0.017376, 0.123243, , , 
1731946999.461313, -0.383820, -0.424073, -9.844658, -0.002133, 0.001284, 0.197361, , , 
1731946999.471312, -0.733374, -0.471957, -9.836578, -0.000023, 0.010133, 0.207164, , , 
1731946999.481300, -0.890044, -0.496647, -9.783307, -0.002722, 0.009872, 0.197168, , , 
1731946999.491027, -1.299004, -0.597353, -9.845705, 0.001011, 0.019416, 0.147506, , , 
1731946999.501309, -0.584036, -0.487220, -9.777022, -0.007087, 0.004049, 0.185997, , , 
1731946999.511313, -0.577003, -0.450858, -9.802311, -0.002800, 0.008178, 0.183301, , , 
1731946999.521307, -0.429310, -0.591218, -9.844209, -0.001064, 0.023291, 0.141713, , , 
1731946999.531301, -0.996736, -0.661249, -9.842713, 0.003470, 0.034258, 0.097985, , , 
1731946999.541296, -0.546028, -0.748787, -9.738565, -0.004103, 0.008946, 0.119948, , , 
1731946999.551312, -0.748338, -0.751480, -9.797223, -0.002683, -0.006863, 0.144695, , , 
1731946999.561306, -1.008707, -0.798616, -9.822512, -0.000580, 0.019605, 0.180650, , , 
1731946999.571307, -0.587477, -0.675913, -9.745448, -0.003561, -0.008148, 0.197715, , , 
1731946999.580976, -0.377835, -0.535553, -9.820417, -0.008294, -0.026850, 0.197477, , , 
1731946999.591305, -1.112406, -0.583736, -9.844658, -0.002324, 0.020194, 0.164782, , , 
1731946999.601314, -0.837073, -0.437091, -9.807249, -0.002468, 0.005161, 0.177824, , , 
1731946999.611302, -1.447594, -0.498144, -9.818471, -0.004798, 0.020070, 0.150952, , , 
1731946999.621293, -1.692102, -0.552312, -9.778219, -0.003064, 0.011839, 0.060028, , , 
1731946999.630823, -1.589301, -0.473753, -9.841665, 0.003189, 0.015373, -0.031375, , , 
1731946999.641303, -1.280150, -0.490811, -9.822212, 0.002080, 0.029240, -0.068654, , , 
1731946999.651320, -1.105672, -0.367510, -9.791686, 0.003329, 0.019335, -0.069403, , , 
1731946999.661308, -1.669806, -0.415095, -9.811887, 0.003594, 0.016101, -0.111345, , , 
1731946999.671304, -0.951246, -0.465523, -9.781511, 0.007010, -0.012762, -0.100380, , , 
1731946999.681328, -1.241394, -0.558597, -9.755324, -0.004249, -0.016758, -0.132503, , , 
1731946999.691314, -0.883460, -0.650175, -9.864260, 0.001467, -0.002589, -0.085005, , , 
1731946999.701357, -0.629974, -0.774375, -9.828048, -0.001289, -0.027021, -0.088061, , , 
1731946999.711309, -0.669628, -0.747739, -9.783307, -0.007960, -0.032960, -0.131458, , , 
1731946999.721329, -1.150264, -0.519691, -9.815329, -0.003631, -0.016762, -0.195313, , , 
1731946999.731304, -0.600196, -0.482881, -9.838972, -0.001262, -0.013309, -0.189360, , , 
1731946999.741325, -0.716166, -0.674566, -9.837775, -0.001589, 0.002558, -0.218878, , , 
1731946999.751316, -1.058387, -0.792032, -9.779266, -0.013034, -0.008410, -0.222393, , , 
1731946999.761349, -1.744326, -0.914435, -9.772533, -0.010437, -0.020596, -0.285174, , , 
1731946999.771311, -1.589600, -0.795623, -9.846304, 0.000023, -0.014250, -0.303667, , , 
1731946999.781324, -0.248548, -0.564433, -9.779117, 0.000191, -0.030480, -0.234130, , , 
1731946999.791308, -1.171812, -0.540341, -9.783307, -0.010066, -0.005909, -0.237765, , , 
1731946999.801307, -1.269825, -0.401627, -9.834632, -0.005338, -0.023898, -0.251878, , , 
1731946999.810317, -0.764349, -0.425569, -9.805902, 0.002232, 0.024274, -0.254044, , , 
1731946999.821350, -0.332644, -0.257227, -9.765051, -0.005870, 0.019923, -0.311999, , , 
1731946999.831313, -0.447716, -0.401478, -9.791237, -0.009751, 0.013104, -0.254735, , , 
1731946999.841387, -1.775151, -0.629525, -9.774179, -0.015979, 0.013837, -0.376928, , , 
1731946999.851372, -2.764106, -0.498443, -9.898976, -0.008128, 0.037035, -0.501943, , , 
1731946999.861313, -1.669806, -0.516549, -9.791387, -0.007819, 0.006481, -0.370102, , , 
1731946999.871321, -1.722628, -0.474800, -9.834183, -0.009081, 0.006967, -0.361316, , , 
1731946999.881416, -1.045518, -0.208744, -9.833435, -0.000609, -0.006067, -0.318813, , , 
1731946999.891300, -1.039981, -0.189441, -9.767146, 0.001806, 0.005886, -0.367039, , , 
1731946999.901309, -1.792958, -0.173580, -9.770138, -0.005534, -0.003564, -0.519218, , , 
1731946999.911220, -1.027113, -0.036960, -9.898827, 0.005165, 0.015858, -0.491245, , , 
1731946999.921332, -0.227000, -0.026635, -9.715072, -0.005588, 0.006758, -0.431217, , , 
1731946999.931310, 0.139612, -0.231190, -9.812935, -0.008874, -0.012388, -0.332203, , , 
1731946999.941386, -0.569970, -0.587477, -9.876980, -0.002698, -0.016980, -0.343535, , , 
1731946999.951384, -0.991499, -0.901118, -9.790340, -0.000235, -0.010561, -0.404816, , , 
1731946999.961372, -0.627430, -0.732925, -9.802311, -0.004965, -0.016932, -0.364547, , , 
1731946999.971308, -0.890194, -0.556053, -9.847651, -0.002555, -0.004145, -0.420380, , , 
1731946999.980385, -0.326060, -0.628328, -9.780164, -0.000719, -0.005828, -0.552342, , , 
1731946999.991370, 0.834828, -0.696413, -9.771485, -0.004248, -0.028744, -0.334699, , , 
1731947000.001315, -0.172383, -0.682198, -9.817424, -0.004079, 0.004010, -0.240874, , , 
1731947000.011315, -1.349731, -0.697461, -9.769390, -0.006167, -0.041652, -0.356665, , , 
1731947000.021312, -0.117466, -0.506523, -9.883713, -0.005770, 0.012887, -0.247100, , , 
1731947000.031347, 0.637157, -0.403573, -9.791537, 0.000005, 0.021475, -0.221374, , , 
1731947000.041299, 1.796250, -0.313042, -9.744850, 0.002755, 0.018074, -0.096155, , , 
1731947000.051328, 0.815525, -0.439785, -9.851841, 0.001309, 0.015107, -0.120236, , , 
1731947000.061390, -0.387711, -0.730381, -9.875932, 0.017529, 0.051318, -0.148110, , , 
1731947000.071322, 0.207847, -0.762104, -9.720159, 0.002116, 0.013316, -0.272424, , , 
1731947000.081323, -0.719607, -0.803255, -9.860370, 0.001538, 0.040874, -0.376124, , , 
1731947000.091221, 0.059256, -0.753126, -9.784953, -0.015972, -0.007622, -0.379444, , , 
1731947000.101309, 1.390433, -0.669030, -9.903316, 0.010109, 0.069915, -0.221930, , , 
1731947000.111329, 2.863316, -0.543334, -9.672425, -0.012321, -0.017737, -0.060643, , , 
1731947000.121301, 0.497395, -0.740557, -9.788245, -0.010984, -0.004356, -0.107724, , , 
1731947000.131320, 0.171335, -0.723049, -9.890447, -0.000357, 0.001705, -0.072616, , , 
1731947000.141136, 0.737414, -0.384269, -9.908553, 0.005096, 0.037120, -0.016901, , , 
1731947000.151323, 0.774075, -0.342969, -9.781810, -0.000288, 0.061177, 0.003302, , , 
1731947000.161319, 1.134103, -0.490961, -9.826701, -0.002978, 0.053515, 0.005124, , , 
1731947000.171309, 1.226280, -0.628478, -9.746795, 0.000263, 0.015035, 0.014484, , , 
1731947000.181321, 1.173608, -0.692972, -9.829993, -0.005534, 0.010230, 0.088232, , , 
1731947000.191066, -0.619649, -1.052401, -9.737368, -0.013345, 0.008836, -0.004067, , , 
1731947000.201316, -1.802983, -1.147720, -9.748142, -0.014984, -0.028697, -0.114560, , , 
1731947000.211321, -1.634940, -0.982521, -9.951499, -0.007715, 0.006402, -0.167461, , , 
1731947000.221305, 2.488174, -0.263512, -9.814132, 0.000113, 0.019051, 0.109478, , , 
1731947000.231337, 2.111536, -0.236727, -9.671827, -0.018311, -0.016590, 0.200372, , , 
1731947000.240983, -0.527622, -0.654964, -9.824906, -0.003163, 0.000854, -0.009525, , , 
1731947000.251323, 0.731878, -0.395642, -9.799617, 0.002913, -0.011108, -0.145179, , , 
1731947000.261393, 1.072602, -0.369156, -9.811887, -0.004074, -0.006964, -0.103450, , , 
1731947000.271362, 0.537199, -0.525378, -9.806351, -0.000955, 0.010115, -0.004249, , , 
1731947000.281395, -0.171036, -0.724246, -9.828647, -0.002435, -0.001387, -0.078625, , , 
1731947000.290844, 0.411054, -0.816423, -9.843910, 0.001497, -0.007650, -0.127914, , , 
1731947000.301371, 1.564312, -0.637755, -9.817274, -0.002673, 0.000763, -0.048478, , , 
1731947000.311322, 1.613093, -0.519691, -9.718364, -0.007025, -0.036981, 0.019761, , , 
1731947000.321314, 0.438438, -0.620996, -9.855133, -0.008417, -0.010927, -0.032569, , , 
1731947000.331326, 1.003619, -0.476446, -9.799467, -0.005446, 0.008986, -0.000218, , , 
1731947000.340800, 1.024868, -0.365116, -9.794080, -0.002304, -0.003174, -0.087264, , , 
1731947000.351398, 0.756717, -0.375590, -9.791237, -0.010500, -0.005481, -0.021032, , , 
1731947000.361326, 0.558298, -0.594510, -9.809493, -0.006345, -0.012465, 0.028868, , , 
1731947000.371399, 0.205901, -0.596455, -9.796475, -0.003685, -0.035017, 0.002150, , , 
1731947000.381404, 0.544531, -0.525976, -9.830742, -0.005909, 0.012592, 0.027399, , , 
1731947000.390724, 0.312144, -0.500687, -9.760711, -0.008456, -0.001936, -0.049633, , , 
1731947000.401335, 0.249596, -0.457592, -9.824906, -0.009156, 0.008566, -0.095825, , , 
1731947000.410370, 0.558448, -0.548571, -9.849895, -0.014940, -0.006205, -0.139180, , , 
1731947000.421394, 0.697311, -0.592715, -9.790938, -0.004600, 0.013297, -0.128991, , , 
1731947000.431384, 0.754772, -0.682647, -9.872191, 0.003612, 0.026418, -0.021129, , , 
1731947000.440609, 1.002871, -0.635960, -9.824457, -0.002910, 0.012588, 0.075710, , , 
1731947000.451325, 1.238550, -0.559495, -9.802161, -0.003003, 0.011882, 0.127286, , , 
1731947000.460406, 1.091906, -0.408211, -9.815778, -0.002938, 0.012724, 0.080854, , , 
1731947000.471335, 1.793706, -0.292691, -9.783905, -0.012321, -0.018490, 0.094949, , , 
1731947000.481399, 1.595586, -0.280271, -9.839870, -0.005895, 0.003029, 0.053674, , , 
1731947000.490527, 1.615488, -0.322619, -9.863961, -0.004229, -0.011333, 0.087599, , , 
1731947000.501395, 1.434426, -0.428412, -9.776124, -0.003068, -0.023929, 0.047700, , , 
1731947000.511323, 1.517475, -0.200215, -9.829993, -0.006801, -0.022921, 0.027727, , , 
1731947000.521403, 1.706617, -0.257526, -9.838672, -0.002230, 0.000850, 0.103052, , , 
1731947000.531322, 1.713051, -0.275034, -9.826701, -0.007751, -0.008365, 0.162461, , , 
1731947000.540460, 1.267580, -0.317381, -9.814581, -0.010822, 0.012928, 0.125247, , , 
1731947000.551399, 1.577180, -0.216077, -9.843012, -0.003531, 0.009753, 0.161335, , , 
1731947000.561329, 1.780089, -0.161908, -9.806800, -0.003810, 0.002248, 0.148435, , , 
1731947000.571396, 1.363797, -0.271443, -9.842413, -0.004666, 0.009466, 0.117002, , , 
1731947000.581332, 1.025317, -0.460884, -9.818771, -0.004970, 0.000309, 0.116641, , , 
1731947000.590348, 1.582717, -0.446519, -9.803957, -0.006247, -0.014918, 0.174168, , , 
1731947000.601326, 0.937480, -0.464176, -9.782858, -0.009998, -0.036766, 0.169510, , , 
1731947000.611328, 0.929250, -0.451906, -9.841216, -0.009766, -0.032007, 0.231826, , , 
1731947000.621319, 0.602591, -0.481534, -9.812037, -0.013514, -0.060692, 0.224952, , , 
1731947000.631367, 0.269048, -0.522086, -9.801413, -0.017988, -0.082337, 0.217843, , , 
1731947000.641394, 0.232088, -0.545130, -9.773131, -0.030714, -0.175188, 0.219789, , , 
1731947000.650973, 0.067935, -0.542137, -9.792434, -0.038054, -0.197870, 0.213773, , , 
1731947000.661327, -0.060304, -0.535553, -9.816676, -0.036748, -0.193470, 0.190008, , , 
1731947000.671329, -0.096217, -0.538695, -9.800664, -0.038268, -0.195200, 0.162597, , , 
1731947000.681326, -0.050129, -0.519542, -9.811289, -0.033406, -0.166698, 0.140577, , , 
1731947000.691378, 0.159214, -0.595857, -9.711181, -0.074846, -0.402481, 0.191654, , , 
1731947000.701318, -0.336984, -0.512808, -9.791088, -0.080287, -0.420530, 0.169388, , , 
1731947000.711328, -0.307954, -0.550068, -9.829844, -0.075829, -0.394106, 0.167434, , , 
1731947000.721322, -0.415993, -0.537199, -9.882965, -0.045561, -0.217851, 0.132269, , , 
1731947000.731379, -0.331148, -0.513107, -9.877429, -0.002414, -0.011712, 0.106256, , , 
1731947000.741401, -0.195576, -0.522086, -9.850793, 0.012922, 0.076997, 0.094972, , , 
1731947000.751368, -0.207697, -0.514304, -9.816676, 0.006478, 0.062736, 0.115915, , , 
1731947000.761352, -0.207248, -0.483329, -9.810092, 0.007917, 0.067620, 0.143248, , , 
1731947000.771339, -0.248997, -0.471658, -9.816077, 0.017866, 0.116981, 0.158291, , , 
1731947000.781332, -0.263362, -0.525378, -9.815179, 0.022779, 0.131565, 0.165922, , , 
1731947000.791347, -0.224456, -0.496198, -9.816077, 0.037069, 0.198269, 0.123650, , , 
1731947000.801331, -0.058957, -0.719907, -9.795577, -0.021831, -0.108111, -0.004036, , , 
1731947000.811333, -0.016310, -0.571167, -9.701305, -0.047570, -0.246739, 0.000780, , , 
1731947000.821327, -0.512509, -0.474052, -9.909601, -0.016308, -0.073185, -0.003297, , , 
1731947000.831328, -0.220416, -0.542436, -9.837326, -0.014668, -0.073395, -0.002303, , , 
1731947000.841354, -0.305410, -0.519242, -9.830293, -0.014035, -0.071126, -0.002923, , , 
1731947000.851357, -0.267103, -0.513856, -9.812037, -0.024896, -0.135059, -0.006009, , , 
1731947000.861334, -0.293439, -0.493206, -9.670181, -0.082250, -0.413330, -0.016663, , , 
1731947000.871390, -0.212186, -0.575805, -9.556755, -0.190593, -0.903864, -0.027062, , , 
1731947000.881382, -0.933140, -0.458041, -9.705046, -0.274921, -1.147752, -0.072347, , , 
1731947000.891364, -0.434099, -0.777068, -9.551668, -0.318689, -1.283085, 0.029824, , , 
1731947000.900612, -0.576703, -0.656011, -12.455535, -0.046399, -0.768884, 0.025511, , , 
1731947000.911332, -0.692822, -0.348207, -9.511714, -0.019453, -0.660893, 0.006934, , , 
1731947000.921329, -0.421978, -0.427515, -9.960627, -0.016066, -0.707901, 0.031315, , , 
1731947000.931399, -0.779762, -0.618901, -10.359411, -0.004539, -0.864680, 0.072712, , , 
1731947000.941393, -0.649427, -0.546028, -10.251074, 0.001868, -1.026585, 0.122467, , , 
1731947000.950437, -0.823755, -0.352097, -10.131214, 0.018119, -1.133736, 0.147535, , , 
1731947000.961413, -0.977283, -0.530615, -9.739762, 0.022669, -1.142897, 0.199240, , , 
1731947000.971430, -1.263690, -0.279224, -10.232818, 0.022582, -1.299345, 0.178819, , , 
1731947000.981335, -1.213411, -0.254833, -10.566210, 0.022134, -1.569563, 0.160017, , , 
1731947000.991405, -1.099537, -0.608426, -10.775703, 0.032610, -1.921279, 0.212830, , , 
1731947001.001377, -1.028609, -0.824204, -11.170597, 0.056524, -2.405622, 0.319977, , , 
1731947001.011401, -1.042824, -0.888249, -11.172991, 0.097982, -2.889910, 0.457692, , , 
1731947001.021394, -1.468992, -0.651073, -10.462512, 0.140985, -3.191686, 0.543142, , , 
1731947001.031331, -2.104204, -0.520589, -9.541043, 0.177392, -3.244931, 0.606928, , , 
1731947001.041340, -2.617012, -0.245855, -8.927080, 0.186920, -3.137711, 0.604778, , , 
1731947001.051333, -3.160496, -0.228946, -8.650700, 0.207565, -2.962911, 0.594782, , , 
1731947001.061336, -4.636222, 0.022595, -7.585729, 0.123910, -2.649927, 0.408838, , , 
1731947001.071407, -5.131971, 0.273687, -6.843975, 0.077457, -2.031119, 0.188170, , , 
1731947001.081337, -3.519626, -0.652121, -7.895329, 0.068158, -1.590024, 0.181346, , , 
1731947001.090650, -4.080617, -0.451307, -8.448090, 0.058383, -1.383576, 0.154386, , , 
1731947001.101406, -4.016573, -0.395193, -9.018958, 0.061616, -1.380096, 0.147750, , , 
1731947001.111350, -4.120271, -0.412551, -9.102455, 0.065347, -1.445273, 0.145978, , , 
1731947001.121410, -4.324078, -0.281468, -9.376143, 0.069369, -1.652073, 0.135604, , , 
1731947001.131335, -4.260931, -0.421679, -9.346814, 0.069795, -1.840854, 0.140447, , , 
1731947001.141406, -4.601057, -0.418387, -8.900145, 0.080096, -1.966077, 0.151497, , , 
1731947001.151329, -4.893748, -0.269048, -8.613290, 0.076955, -2.029639, 0.144241, , , 
1731947001.161339, -4.971859, -0.282815, -8.708160, 0.089800, -2.141165, 0.152865, , , 
1731947001.171331, -4.984877, -0.422577, -8.823681, 0.097257, -2.304814, 0.160899, , , 
1731947001.181335, -5.144242, -0.385915, -8.691850, 0.101710, -2.469693, 0.164855, , , 
1731947001.191374, -5.332336, -0.345813, -8.334515, 0.097674, -2.558960, 0.153538, , , 
1731947001.201336, -5.578191, -0.318429, -7.983765, 0.090916, -2.581404, 0.128151, , , 
1731947001.211406, -5.800702, -0.341772, -7.844153, 0.073916, -2.611584, 0.100821, , , 
1731947001.221357, -5.944204, -0.346710, -7.761553, 0.065518, -2.652066, 0.079277, , , 
1731947001.231344, -6.156690, -0.350751, -7.570765, 0.073272, -2.705863, 0.087677, , , 
1731947001.241411, -6.328623, -0.453552, -7.402872, 0.073020, -2.723671, 0.078643, , , 
1731947001.251349, -6.678476, -0.477045, -6.957550, 0.019288, -2.727454, 0.026327, , , 
1731947001.261382, -6.957849, -0.359878, -6.567894, -0.009641, -2.671624, 0.001306, , , 
1731947001.271363, -7.030274, -0.446968, -6.414515, -0.011620, -2.585259, 0.000603, , , 
1731947001.281330, -7.191134, -0.427215, -6.478859, -0.021930, -2.581220, -0.002888, , , 
1731947001.291335, -7.258920, -0.422427, -6.709601, -0.016407, -2.710586, 0.001643, , , 
1731947001.301409, -7.398532, -0.452803, -6.504896, -0.055968, -2.838959, 0.005019, , , 
1731947001.311379, -7.602338, -0.332195, -5.958569, -0.044263, -2.883072, -0.009948, , , 
1731947001.321413, -8.160337, -0.273089, -2.666392, -0.287866, -1.810889, -0.118882, , , 
1731947001.330724, -9.111733, -0.389507, -0.086191, -0.324616, -0.183160, -0.114826, , , 
1731947001.341336, -7.904008, 0.082301, -6.552182, 0.052736, -0.469382, -0.220158, , , 
1731947001.351411, -8.403797, -0.910096, -5.782147, -0.146983, -0.570268, -0.065142, , , 
1731947001.361369, -8.153903, -0.509366, -5.477185, -0.091556, -0.691125, -0.057509, , , 
1731947001.371339, -8.057686, -0.521038, -5.806538, -0.024846, -0.751656, -0.013819, , , 
1731947001.381340, -8.233510, -0.417339, -5.559486, -0.056379, -0.848614, -0.033790, , , 
1731947001.391362, -8.249072, -0.379930, -5.437232, -0.073498, -0.893370, -0.040829, , , 
1731947001.401329, -8.250419, -0.406416, -5.536891, -0.070233, -1.000507, -0.038027, , , 
1731947001.411338, -8.346786, -0.402525, -5.517438, -0.066164, -1.137747, -0.036099, , , 
1731947001.421414, -8.426243, -0.264260, -5.330091, -0.106072, -1.300856, -0.060674, , , 
1731947001.430342, -8.458415, -0.189591, -5.136909, -0.127123, -1.397633, -0.069127, , , 
1731947001.441342, -8.473978, -0.649278, -4.904821, -0.067304, -1.432280, -0.033587, , , 
1731947001.451332, -8.710854, -0.522385, -4.418798, -0.090257, -1.392421, -0.042553, , , 
1731947001.461340, -8.751855, -0.278176, -4.106954, -0.146499, -1.269022, -0.071575, , , 
1731947001.471332, -8.747216, -0.448913, -4.232200, -0.144690, -1.174617, -0.068820, , , 
1731947001.481359, -8.827422, -0.480037, -4.126257, -0.135423, -1.107705, -0.064951, , , 
1731947001.491358, -8.886678, -0.454000, -4.180575, -0.125146, -1.112425, -0.057216, , , 
1731947001.501368, -8.932168, -0.437540, -4.028394, -0.119157, -1.103016, -0.053830, , , 
1731947001.511208, -8.922741, -0.434398, -4.097676, -0.087177, -1.128059, -0.039679, , , 
1731947001.521345, -8.952070, -0.457442, -4.216788, -0.036707, -1.221012, -0.016756, , , 
1731947001.531340, -8.981249, -0.461931, -4.015974, -0.000221, -1.281157, -0.000649, , , 
1731947001.541337, -9.059061, -0.446369, -3.783288, 0.005752, -1.306493, 0.001479, , , 
1731947001.551339, -9.111434, -0.445770, -3.611504, 0.017553, -1.294762, 0.003961, , , 
1731947001.561341, -9.166949, -0.400730, -3.480720, 0.020159, -1.302276, 0.005340, , , 
1731947001.571335, -9.185804, -0.393098, -3.394978, 0.010261, -1.341862, 0.005281, , , 
1731947001.581410, -9.253290, -0.394594, -3.158700, -0.001006, -1.371048, 0.000486, , , 
1731947001.591415, -9.299379, -0.406565, -3.046322, -0.005788, -1.381828, 0.000589, , , 
1731947001.601415, -9.316736, -0.395941, -2.995595, -0.007497, -1.406127, 0.000206, , , 
1731947001.611336, -9.375095, -0.401328, -2.762909, -0.010412, -1.399440, 0.001117, , , 
1731947001.621415, -9.439140, -0.427365, -2.528726, -0.008537, -1.358875, 0.000980, , , 
1731947001.631416, -9.483134, -0.421230, -2.339434, -0.003921, -1.294354, 0.001193, , , 
1731947001.641349, -9.521291, -0.414047, -2.223764, -0.002687, -1.229504, 0.001753, , , 
1731947001.651414, -9.547478, -0.430058, -2.147449, -0.005995, -1.180511, 0.003618, , , 
1731947001.661361, -9.562441, -0.427066, -2.133383, -0.004769, -1.166365, 0.001816, , , 
1731947001.671407, -9.569923, -0.402525, -2.119617, -0.005471, -1.174514, 0.000880, , , 
1731947001.681397, -9.598504, -0.386514, -1.990629, -0.003321, -1.179504, -0.000194, , , 
1731947001.690632, -9.621099, -0.416890, -1.868076, -0.006217, -1.188960, 0.002772, , , 
1731947001.701400, -9.713126, -0.381277, -1.799392, 0.008733, -1.164776, -0.004008, , , 
1731947001.711342, -9.779266, -0.284311, -1.591246, 0.079569, -0.939819, -0.005859, , , 
1731947001.721332, -9.590274, 0.342969, -2.584241, 0.278968, -0.687746, 0.019349, , , 
1731947001.731385, -9.527426, 0.171185, -2.143858, 0.420868, -0.585587, 0.041626, , , 
1731947001.741350, -9.881918, -0.320673, -1.029058, 0.423739, -0.612835, 0.031033, , , 
1731947001.751331, -9.975441, -0.744297, -0.196773, 0.304701, -0.737132, 0.005064, , , 
1731947001.761359, -9.815179, -0.815226, -0.649577, 0.199903, -0.782455, -0.012670, , , 
1731947001.771334, -9.808296, -0.552013, -0.665738, 0.085934, -0.817378, -0.028242, , , 
1731947001.781420, -9.750237, -0.564882, -0.856526, 0.019219, -0.789466, -0.031395, , , 
1731947001.791336, -9.735871, -0.631471, -1.074398, 0.028430, -0.777468, -0.026089, , , 
1731947001.801412, -9.785252, -0.582689, -0.992546, 0.063578, -0.756411, -0.020193, , , 
1731947001.811339, -9.788394, -0.468515, -0.902015, 0.154681, -0.708781, -0.013591, , , 
1731947001.821426, -9.760562, -0.581641, -0.633416, 0.251136, -0.626763, 0.006875, , , 
1731947001.831340, -9.755474, -0.540042, -0.435745, 0.305338, -0.521204, 0.034757, , , 
1731947001.841338, -9.801113, -0.420482, -0.323816, 0.310573, -0.419943, 0.039458, , , 
1731947001.851344, -9.867852, -0.333991, -0.228197, 0.267348, -0.344080, 0.017820, , , 
1731947001.861335, -9.856629, -0.333542, -0.399383, 0.202411, -0.269915, -0.009241, , , 
1731947001.871332, -9.868750, -0.378284, -0.547674, 0.096549, -0.242496, -0.040505, , , 
1731947001.881330, -9.839421, -0.405219, -0.519542, -0.015080, -0.302665, -0.058259, , , 
1731947001.891332, -9.847651, -0.408062, -0.578948, -0.126069, -0.406074, -0.069822, , , 
1731947001.901349, -9.705345, -0.468665, -0.623989, -0.192407, -0.540199, -0.026470, , , 
1731947001.911358, -9.768193, -0.599299, -0.839766, -0.209239, -0.528844, -0.031576, , , 
1731947001.921364, -9.834483, -0.457293, -0.630722, -0.175111, -0.562452, -0.031341, , , 
1731947001.931334, -9.812187, -0.482581, -0.602591, -0.099841, -0.589153, -0.023998, , , 
1731947001.941341, -9.812336, -0.436194, -0.608127, 0.019336, -0.714419, -0.025042, , , 
1731947001.951426, -9.801263, -0.493206, -0.473902, 0.104800, -0.701665, -0.015387, , , 
1731947001.961341, -9.807548, -0.452803, -0.127791, 0.151883, -0.708301, -0.014647, , , 
1731947001.971344, -9.827300, -0.443825, -0.177620, 0.183284, -0.672063, -0.017131, , , 
1731947001.981404, -9.706243, -0.646135, 0.042647, 0.129404, -0.668048, 0.034619, , , 
1731947001.991345, -9.862016, -0.479589, 0.029179, 0.091458, -0.644152, 0.025346, , , 
1731947002.001351, -9.792883, -0.441431, 0.196025, 0.036845, -0.698129, 0.029918, , , 
1731947002.011375, -9.803508, -0.520440, 0.352546, -0.013434, -0.701051, 0.029862, , , 
1731947002.021389, -9.841665, -0.431854, 0.246752, -0.023037, -0.705941, 0.025707, , , 
1731947002.031328, -9.849147, -0.438588, 0.121356, 0.010826, -0.692749, 0.022808, , , 
1731947002.041353, -9.773281, -0.443825, 0.555305, 0.006950, -0.646329, 0.022869, , , 
1731947002.051329, -9.820566, -0.458639, 0.638204, -0.005900, -0.630908, 0.025913, , , 
1731947002.061351, -9.787496, -0.478092, 0.580744, -0.024859, -0.637079, 0.027444, , , 
1731947002.071341, -9.862914, -0.422427, 0.530166, 0.013340, -0.562222, 0.019019, , , 
1731947002.081405, -9.812935, -0.433650, 0.982521, -0.010803, -0.515112, 0.020951, , , 
1731947002.091345, -9.813833, -0.450858, 0.822857, -0.008418, -0.464147, 0.018912, , , 
1731947002.101348, -9.812785, -0.429161, 0.922965, -0.009780, -0.401555, 0.017799, , , 
1731947002.111425, -9.788544, -0.425120, 0.908151, -0.011567, -0.355993, 0.018049, , , 
1731947002.121335, -9.798420, -0.411503, 0.831387, -0.015439, -0.348844, 0.016469, , , 
1731947002.131349, -9.801413, -0.416591, 0.775871, -0.012698, -0.353146, 0.015936, , , 
1731947002.141342, -9.797522, -0.430208, 0.765396, -0.001354, -0.360382, 0.013498, , , 
1731947002.151406, -9.809792, -0.423325, 0.839018, 0.000386, -0.378162, 0.011864, , , 
1731947002.161365, -9.777321, -0.449811, 0.806996, 0.012535, -0.403333, 0.010241, , , 
1731947002.171334, -9.824607, -0.453103, 1.194856, 0.033393, -0.277054, 0.006213, , , 
1731947002.181328, -9.787496, -0.441132, 1.457321, 0.030775, -0.142008, 0.003109, , , 
1731947002.191332, -9.792135, -0.422726, 1.054496, 0.049951, -0.068214, -0.000450, , , 
1731947002.201333, -9.785551, -0.410456, 1.243638, 0.034482, -0.034698, -0.000343, , , 
1731947002.211405, -9.794230, -0.390405, 1.131410, 0.033890, -0.005564, -0.003675, , , 
1731947002.221330, -9.759963, -0.417190, 1.038036, 0.020389, -0.016979, -0.003563, , , 
1731947002.231342, -9.760262, -0.432902, 0.994342, 0.014022, -0.047770, -0.000976, , , 
1731947002.241331, -9.785252, -0.441730, 0.884059, 0.017367, -0.074867, 0.001884, , , 
1731947002.251413, -9.802759, -0.441281, 0.896928, 0.041664, -0.069425, 0.001151, , , 
1731947002.261412, -9.745448, -0.451307, 1.287781, 0.003729, -0.089938, 0.005340, , , 
1731947002.271338, -9.791387, -0.407014, 1.142184, 0.001206, -0.069715, 0.002221, , , 
1731947002.281353, -9.784803, -0.403872, 1.156699, -0.005096, -0.045789, 0.002123, , , 
1731947002.291345, -9.764452, -0.403124, 1.168370, -0.009246, -0.026468, 0.000706, , , 
1731947002.301405, -9.768792, -0.414047, 1.067664, -0.012922, -0.029171, 0.000774, , , 
1731947002.311362, -9.765649, -0.413449, 1.039084, -0.014699, -0.046950, -0.002101, , , 
1731947002.321332, -9.780463, -0.425869, 0.986710, -0.017561, -0.079260, 0.002362, , , 
1731947002.331270, -9.771784, -0.450409, 1.001375, -0.018303, -0.103531, 0.003026, , , 
1731947002.341353, -9.764901, -0.445172, 1.101482, -0.017268, -0.109110, 0.004458, , , 
1731947002.351368, -9.777171, -0.425569, 1.115249, -0.020883, -0.109703, 0.006710, , , 
1731947002.361354, -9.752930, -0.417639, 1.188571, -0.021559, -0.090341, 0.004935, , , 
1731947002.371332, -9.769540, -0.403573, 1.262642, -0.024421, -0.063377, 0.004169, , , 
1731947002.381355, -9.777171, -0.399832, 1.105822, -0.022546, -0.070142, 0.002866, , , 
1731947002.391332, -9.768343, -0.400580, 1.025616, -0.010348, -0.069731, 0.001048, , , 
1731947002.401362, -9.775076, -0.414496, 1.148618, -0.000157, -0.049247, 0.000798, , , 
1731947002.411394, -9.779416, -0.437690, 1.122581, 0.006164, -0.043751, -0.000973, , , 
1731947002.421346, -9.770438, -0.443526, 1.110461, 0.014758, -0.036807, -0.001408, , , 
1731947002.431344, -9.766846, -0.458340, 1.133804, 0.018085, -0.038555, -0.000349, , , 
1731947002.441343, -9.752481, -0.438289, 1.151162, 0.021395, -0.037026, 0.000503, , , 
1731947002.451410, -9.758167, -0.421679, 1.211765, 0.017077, -0.035995, -0.000199, , , 
1731947002.461363, -9.750985, -0.402226, 1.194258, 0.015091, -0.036776, 0.000482, , , 
1731947002.471334, -9.762357, -0.381127, 1.193659, 0.009232, -0.039322, -0.001007, , , 
1731947002.481348, -9.746346, -0.400131, 1.237952, 0.000233, -0.046472, 0.001879, , , 
1731947002.491335, -9.747394, -0.410007, 1.345541, -0.009848, -0.020573, 0.000618, , , 
1731947002.501401, -9.771784, -0.422876, 1.433379, -0.022634, 0.030737, 0.000756, , , 
1731947002.511342, -9.774777, -0.428861, 1.279102, -0.017418, 0.076421, -0.001803, , , 
1731947002.521335, -9.793482, -0.421978, 1.122432, -0.011349, 0.074452, -0.003285, , , 
1731947002.531344, -9.762806, -0.432453, 1.266982, -0.017968, 0.086418, -0.003111, , , 
1731947002.541334, -9.773430, -0.397138, 1.055244, -0.006022, 0.093186, -0.005569, , , 
1731947002.551348, -9.768941, -0.411354, 1.199046, -0.002401, 0.113578, -0.007804, , , 
1731947002.561406, -9.767295, -0.389956, 1.231218, -0.002376, 0.138146, -0.009837, , , 
1731947002.571349, -9.828048, -0.394295, 1.044022, 0.017370, 0.155548, -0.021558, , , 
1731947002.581341, -9.670929, -0.452803, 1.434426, -0.040987, 0.128273, -0.004222, , , 
1731947002.591338, -9.890597, -0.402675, 1.055843, 0.002634, 0.190765, -0.015824, , , 
1731947002.601409, -9.695020, -0.456095, 1.158794, -0.030058, 0.156165, -0.003188, , , 
1731947002.611366, -9.798869, -0.431704, 1.267879, -0.026623, 0.192813, -0.008125, , , 
1731947002.621339, -9.838224, -0.390704, 0.789189, 0.010841, 0.224135, -0.020054, , , 
1731947002.631420, -9.666739, -0.419883, 1.467646, -0.049872, 0.199597, -0.005892, , , 
1731947002.641336, -9.870545, -0.397886, 0.894085, -0.019966, 0.242496, -0.018921, , , 
1731947002.651365, -9.710134, -0.478840, -0.343119, 0.037813, 0.001982, -0.000539, , , 
1731947002.661406, -9.789142, -0.421978, 1.108366, 0.040145, 0.013842, 0.000087, , , 
1731947002.671332, -9.780314, -0.424971, 1.443704, 0.029726, 0.099447, -0.002926, , , 
1731947002.681371, -9.705794, -0.450110, 1.538275, -0.045089, 0.098904, 0.003552, , , 
1731947002.691345, -9.866355, -0.437690, 0.742053, -0.012652, 0.117642, -0.007434, , , 
1731947002.701362, -9.748441, -0.458490, 0.628179, -0.012308, 0.029131, -0.004107, , , 
1731947002.711414, -9.792434, -0.424223, 1.038635, -0.021566, 0.011012, -0.000936, , , 
1731947002.721369, -9.758018, -0.414496, 1.036540, -0.034115, -0.005096, 0.001724, , , 
1731947002.731340, -9.733776, -0.423474, 1.109413, -0.060528, -0.032468, 0.006460, , , 
1731947002.741411, -9.770737, -0.367959, 1.461959, -0.102987, -0.007495, 0.008050, , , 
1731947002.751414, -9.687389, -0.426617, 1.856853, -0.199355, -0.018829, 0.019014, , , 
1731947002.761384, -9.656713, -0.454599, 1.890073, -0.313452, -0.058910, 0.033096, , , 
1731947002.771339, -9.713126, -0.448763, 1.262792, -0.357135, -0.081889, 0.043386, , , 
1731947002.781335, -9.857078, -0.414347, 0.654814, -0.340284, -0.107026, 0.039734, , , 
1731947002.791337, -9.788693, -0.426617, 0.627430, -0.312226, -0.135320, 0.040334, , , 
1731947002.801338, -9.831490, -0.403872, 0.712874, -0.276118, -0.111967, 0.034329, , , 
1731947002.811409, -9.839870, -0.427066, 0.709432, -0.241734, -0.089471, 0.029087, , , 
1731947002.821426, -9.780763, -0.438588, 0.966360, -0.229183, -0.081896, 0.029024, , , 
1731947002.831362, -9.789442, -0.397587, 1.160140, -0.233698, -0.065082, 0.027219, , , 
1731947002.841347, -9.669732, -0.444124, 1.826177, -0.305894, -0.071811, 0.040996, , , 
1731947002.851384, -9.679907, -0.411204, 2.090737, -0.394399, -0.016246, 0.041620, , , 
1731947002.861354, -9.665392, -0.488118, 1.821090, -0.444336, -0.017058, 0.054653, , , 
1731947002.871361, -9.879972, -0.292841, 1.207575, -0.404998, 0.071748, 0.031875, , , 
1731947002.881340, -9.859771, -0.171185, 0.633416, -0.238319, 0.064120, 0.012468, , , 
1731947002.891340, -9.768792, -0.107290, 0.750582, -0.134020, 0.074197, 0.004819, , , 
1731947002.901345, -9.845257, -0.212934, 1.076044, -0.100165, 0.175507, -0.008592, , , 
1731947002.911392, -9.819968, -0.379631, 1.013645, -0.089346, 0.286229, -0.011412, , , 
1731947002.921358, -9.727192, -0.477643, 1.219397, -0.039977, 0.291539, -0.014383, , , 
1731947002.931426, -9.709834, -0.703147, 1.429189, -0.027839, 0.246762, -0.005643, , , 
1731947002.941340, -9.765649, -0.790386, 1.196652, 0.013465, 0.222219, -0.005696, , , 
1731947002.951424, -9.720758, -0.726341, 1.445948, 0.047642, 0.131408, -0.014216, , , 
1731947002.961414, -9.763255, -0.654365, 1.440561, 0.032385, 0.122512, -0.018075, , , 
1731947002.971385, -9.635165, -0.610372, 1.597830, -0.046974, 0.176139, -0.001093, , , 
1731947002.981350, -9.891495, -0.747141, 1.186477, -0.028379, 0.181386, -0.022343, , , 
1731947002.991418, -9.690232, -0.512210, 1.462558, -0.049739, 0.192836, -0.009083, , , 
1731947003.001430, -9.485528, -0.666037, 2.231845, 0.002612, -0.056383, 0.012131, , , 
1731947003.010660, -9.676914, -0.538546, 2.529175, 0.064392, -0.378740, -0.002133, , , 
1731947003.021364, -9.876082, -0.223259, 1.495628, -0.003917, -0.173838, -0.016754, , , 
1731947003.031408, -9.881918, -0.319327, 0.506823, 0.025380, 0.079553, -0.012128, , , 
1731947003.041411, -9.893589, -0.541239, 0.742053, -0.000516, 0.341864, -0.015189, , , 
1731947003.051341, -9.812636, -0.806696, 1.233014, -0.002291, 0.375325, -0.020401, , , 
1731947003.061342, -9.551668, -0.802058, 1.403152, -0.070156, 0.374364, 0.004399, , , 
1731947003.071342, -9.833734, -0.680701, 1.433379, -0.165417, 0.450628, -0.004626, , , 
1731947003.081411, -9.696068, -0.668282, 1.549198, -0.234596, 0.415812, 0.006787, , , 
1731947003.091342, -9.652374, -0.597204, 1.799841, -0.281081, 0.420055, 0.030340, , , 
1731947003.101373, -9.878925, -0.311545, 1.134552, -0.285396, 0.472703, 0.000950, , , 
1731947003.111353, -9.708188, -0.368857, 1.533486, -0.262660, 0.389383, 0.003742, , , 
1731947003.121414, -9.802610, -0.354342, 1.274613, -0.223105, 0.358317, 0.000398, , , 
1731947003.131356, -9.713426, -0.280720, 1.694945, -0.105875, 0.166934, -0.002286, , , 
1731947003.141375, -9.813234, -0.082899, 1.673697, -0.033259, 0.038201, -0.016939, , , 
1731947003.151421, -9.746047, -0.016909, 1.299303, 0.022756, 0.063407, -0.006299, , , 
1731947003.161342, -9.743653, -0.149937, 1.428441, 0.108585, -0.007603, -0.011906, , , 
1731947003.171342, -9.580548, -0.117615, 1.610250, 0.209960, -0.223044, 0.024138, , , 
1731947003.181342, -9.786150, -0.103400, 1.545457, 0.274824, -0.357384, 0.001195, , , 
1731947003.191341, -9.884611, -0.073921, 0.497844, 0.252721, -0.067339, -0.011766, , , 
1731947003.201340, -9.695469, -0.203956, 0.897526, 0.419415, -0.348454, -0.007868, , , 
1731947003.211383, -9.615862, -0.294636, 2.242170, 0.533994, -0.721131, 0.007842, , , 
1731947003.221343, -9.473407, -0.235679, 2.388665, 0.657064, -1.063295, 0.009962, , , 
1731947003.231422, -9.746945, 0.229694, 1.583764, 0.687655, -1.051622, 0.002464, , , 
1731947003.241341, -9.742904, 0.333393, 0.703446, 0.743342, -0.865202, 0.015933, , , 
1731947003.251396, -9.728390, -0.135422, 0.913388, 0.785455, -0.702573, 0.039421, , , 
1731947003.261344, -9.791088, -0.555156, 1.835156, 0.718370, -0.630719, 0.020600, , , 
1731947003.271346, -9.969905, -0.870292, 1.708861, 0.636041, -0.552782, -0.126965, , , 
1731947003.281387, -9.894188, -0.757765, 1.606958, 0.518821, -0.464935, -0.189030, , , 
1731947003.291356, -9.853786, -0.769137, 0.448614, 0.354570, 0.210452, -0.035086, , , 
1731947003.301342, -9.442881, -0.731728, 1.973720, 0.380287, -0.149638, -0.015797, , , 
1731947003.311391, -9.599402, -0.767791, 2.745551, 0.309878, -0.279306, -0.040956, , , 
1731947003.321349, -9.703999, -0.384419, 1.764826, 0.175120, -0.246080, 0.007946, , , 
1731947003.331375, -9.537901, -0.338780, 1.924040, 0.177501, -0.355472, 0.042742, , , 
1731947003.341344, -9.729138, -0.777517, 2.069488, 0.073821, -0.270538, 0.069588, , , 
1731947003.351416, -10.001179, -0.963068, 1.081730, -0.037515, 0.031520, -0.003871, , , 
1731947003.361361, -9.873239, -0.629376, 1.073201, -0.138255, 0.191408, -0.037361, , , 
1731947003.371398, -9.711929, -0.421230, 1.684022, -0.172907, 0.225742, -0.003491, , , 
1731947003.381402, -9.579799, -0.120758, 2.008137, -0.201853, 0.094900, 0.016415, , , 
1731947003.391367, -9.539547, 0.253486, 2.182614, -0.227655, -0.024429, 0.043255, , , 
1731947003.401434, -9.650578, 0.348805, 1.839495, -0.277607, -0.031050, 0.036410, , , 
1731947003.411376, -9.723302, 0.234632, 1.666664, -0.319452, 0.019070, 0.012476, , , 
1731947003.421372, -9.924265, -0.096217, 0.782305, -0.365406, 0.298160, 0.011186, , , 
1731947003.431378, -9.966762, -0.585083, 0.744746, -0.420395, 0.553113, -0.006685, , , 
1731947003.441347, -10.029760, -1.221192, 0.391153, -0.578244, 0.991562, 0.017297, , , 
1731947003.451418, -9.982923, -1.659032, 0.285060, -0.772743, 1.386660, 0.023500, , , 
1731947003.461364, -9.763854, -1.866430, 0.865654, -0.819666, 1.243402, -0.000354, , , 
1731947003.471380, -9.612570, -1.603666, 1.489792, -0.820558, 0.870078, 0.008820, , , 
1731947003.481428, -9.630527, -1.102829, 1.464653, -0.865484, 0.638632, 0.037027, , , 
1731947003.491354, -9.807997, -0.623241, 0.542736, -0.948928, 0.619854, 0.020215, , , 
1731947003.501426, -9.875184, -0.197372, -0.039205, -1.000067, 0.715901, 0.016661, , , 
1731947003.511356, -9.824607, 0.002394, -0.102651, -1.053082, 0.803922, 0.015760, , , 
1731947003.521346, -9.784354, 0.010325, 0.205901, -1.074663, 0.682748, 0.024248, , , 
1731947003.531430, -9.780314, -0.096217, 0.657208, -1.081256, 0.465008, 0.016099, , , 
1731947003.541277, -9.831939, -0.058957, 0.173580, -1.100923, 0.428723, 0.008289, , , 
1731947003.551376, -9.929203, 0.053570, -0.284162, -1.095279, 0.561361, -0.005734, , , 
1731947003.561348, -9.741258, 0.088286, -0.417639, -1.070907, 0.706968, -0.002001, , , 
1731947003.570810, -9.902268, -0.168342, -0.301819, -1.032467, 0.786215, -0.015858, , , 
1731947003.581428, -9.813533, -0.307356, 0.090381, -0.919578, 0.612759, -0.023868, , , 
1731947003.591355, -9.711181, -0.236876, 0.248698, -0.827246, 0.473843, -0.006453, , , 
1731947003.601383, -9.908703, -0.037260, -0.414197, -0.739608, 0.384490, -0.024782, , , 
1731947003.611377, -9.770887, 0.237325, -0.459986, -0.757571, 0.359852, -0.011996, , , 
1731947003.621358, -9.676016, 0.121506, -0.556203, -0.741457, 0.241436, 0.009991, , , 
1731947003.631421, -9.835829, -0.389058, -0.390554, -0.551486, 0.134634, 0.015700, , , 
1731947003.641384, -9.836129, -0.644938, 0.241814, -0.253829, -0.267356, 0.005067, , , 
1731947003.651358, -9.756072, -0.691176, 0.711826, 0.039067, -0.666497, 0.044928, , , 
1731947003.661424, -9.765051, -0.228946, 0.386215, 0.245996, -0.886036, 0.055934, , , 
1731947003.671357, -9.765200, 0.202011, -0.146346, 0.393149, -0.930833, 0.044899, , , 
1731947003.681348, -9.854384, -0.243760, -0.236128, 0.492973, -0.823906, 0.040685, , , 
1731947003.691350, -9.983222, -0.793827, -0.382474, 0.439478, -0.390938, 0.003650, , , 
1731947003.701421, -9.961974, -1.119738, -1.697788, 0.301447, 0.317923, -0.024696, , , 
1731947003.711350, -9.874735, -1.164629, -0.412551, 0.344197, 0.277229, -0.006639, , , 
1731947003.721366, -9.598205, -0.985813, 1.851616, 0.591481, -0.583120, 0.035174, , , 
1731947003.731421, -9.810092, -0.224456, 2.198027, 0.674106, -0.953127, 0.004225, , , 
1731947003.741427, -9.572467, 0.332495, -0.047136, 0.677144, -0.940054, 0.033644, , , 
1731947003.751382, -9.600599, 0.115221, -0.145298, 0.755555, -0.740099, 0.097368, , , 
1731947003.761466, -9.505579, -0.576254, 0.210091, 0.801829, -0.559763, 0.252099, , , 
1731947003.771355, -9.961226, -1.166126, 0.663493, 0.759925, -0.410200, 0.281336, , , 
1731947003.781397, -10.021979, -1.341052, 1.244386, 0.664391, -0.357102, 0.211113, , , 
1731947003.791363, -9.870845, -1.396867, 1.049409, 0.563871, -0.297534, 0.139694, , , 
1731947003.801434, -9.938630, -1.322647, 1.051503, 0.420361, -0.175821, 0.086172, , , 
1731947003.811427, -9.872191, -1.067066, 0.845901, 0.306420, -0.063353, 0.043459, , , 
1731947003.821389, -9.900323, -0.743250, 1.101931, 0.212183, -0.023955, 0.013373, , , 
1731947003.831352, -9.771186, -0.425270, 1.275062, 0.131010, -0.063821, -0.015314, , , 
1731947003.841380, -9.837475, -0.190938, 1.323994, 0.048794, -0.115754, -0.035184, , , 
1731947003.851360, -9.685444, -0.128389, 1.086219, -0.021107, -0.133263, -0.039038, , , 
1731947003.861410, -9.872191, -0.039953, 0.742053, -0.070602, -0.041637, -0.062161, , , 
1731947003.871389, -9.929652, -0.021548, 0.442329, -0.093038, 0.030860, -0.081754, , , 
1731947003.881211, -9.854534, -0.089034, 0.491560, -0.085475, 0.078221, -0.082107, , , 
1731947003.891349, -9.813084, -0.241814, 0.729783, -0.080389, 0.049681, -0.111491, , , 
1731947003.901360, -9.866355, -0.395791, 0.745046, -0.084214, 0.060071, -0.128691, , , 
1731947003.911458, -9.740211, -0.238672, 0.631022, -0.072588, 0.065923, -0.124910, , , 
1731947003.921379, -9.867852, -0.107589, 0.811036, -0.076895, 0.044158, -0.111596, , , 
1731947003.931355, -9.723601, -0.016161, 0.797120, -0.052147, -0.046020, -0.060219, , , 
1731947003.941353, -9.676016, 0.177171, 0.852336, -0.024328, -0.160511, -0.018079, , , 
1731947003.951415, -9.766996, 0.099359, 0.609175, 0.006212, -0.170852, -0.001356, , , 
1731947003.961470, -9.847651, -0.035614, 0.444124, 0.029998, -0.150182, 0.010184, , , 
1731947003.971359, -9.778518, -0.188992, 0.588525, 0.038623, -0.160181, 0.012497, , , 
1731947003.981353, -9.891794, -0.439785, 0.647632, 0.029076, -0.159482, -0.009995, , , 
1731947003.991348, -9.888202, -0.637905, 0.477643, -0.000945, -0.135921, -0.033231, , , 
1731947004.001398, -9.881918, -0.599598, 0.377835, -0.032200, -0.056770, -0.057506, , , 
1731947004.011365, -9.914090, -0.614113, 0.243161, -0.029465, -0.006585, -0.043508, , , 
1731947004.021385, -9.782558, -0.525976, 0.478391, 0.000451, -0.024852, -0.003033, , , 
1731947004.031355, -9.723601, -0.341323, 0.573411, 0.041938, -0.068469, 0.044597, , , 
1731947004.041358, -9.759065, -0.229993, 0.521637, 0.065663, -0.089472, 0.070214, , , 
1731947004.051416, -9.859921, -0.089633, 0.545878, 0.078924, -0.119845, 0.064571, , , 
1731947004.061399, -9.846603, -0.096516, 0.560243, 0.082209, -0.158010, 0.029219, , , 
1731947004.071356, -9.971551, -0.165050, 0.439935, 0.055411, -0.170034, -0.012509, , , 
1731947004.081436, -9.907506, -0.333393, 0.345962, 0.046166, -0.140911, -0.037520, , , 
1731947004.091352, -9.866206, -0.472556, 0.289848, 0.049858, -0.117487, -0.044500, , , 
1731947004.101381, -9.770288, -0.595707, 0.334290, 0.063174, -0.116592, -0.039943, , , 
1731947004.111397, -9.850344, -0.662146, 0.435595, 0.064756, -0.109785, -0.044313, , , 
1731947004.121358, -9.785401, -0.604985, 0.402974, 0.061034, -0.084973, -0.012857, , , 
1731947004.131387, -9.870096, -0.537648, 0.309151, 0.070313, -0.051879, -0.002378, , , 
1731947004.141352, -9.720608, -0.348057, 0.520440, 0.075109, -0.073922, -0.000521, , , 
1731947004.151083, -9.900622, -0.281019, 0.474800, 0.064238, -0.036245, -0.003362, , , 
1731947004.161433, -9.858125, -0.429310, 0.435296, 0.074304, -0.053341, -0.021414, , , 
1731947004.171481, -9.905411, -0.458490, 0.612766, 0.070737, -0.070385, -0.054306, , , 
1731947004.181358, -9.809044, -0.374244, 0.587777, 0.063513, -0.089549, -0.060779, , , 
1731947004.191370, -9.897630, -0.312743, 0.412850, 0.069271, -0.064130, -0.036258, , , 
1731947004.201055, -9.686790, -0.333393, 0.507870, 0.078568, -0.081132, -0.010537, , , 
1731947004.211366, -9.900323, -0.299275, 0.584185, 0.067035, -0.056144, 0.000011, , , 
1731947004.221365, -9.824307, -0.384269, 0.651971, 0.052596, -0.075588, -0.005631, , , 
1731947004.231377, -9.821913, -0.427066, 0.651073, 0.049632, -0.077205, 0.000839, , , 
1731947004.241361, -9.725546, -0.368258, 0.571616, 0.063926, -0.092723, 0.020709, , , 
1731947004.251356, -9.879374, -0.289998, 0.696713, 0.069734, -0.078054, 0.019163, , , 
1731947004.261363, -9.757868, -0.240468, 0.784700, 0.066637, -0.091284, 0.010088, , , 
1731947004.271446, -9.843162, -0.140061, 0.654964, 0.049433, -0.041021, 0.009318, , , 
1731947004.281402, -9.815329, -0.180014, 0.672471, 0.052580, -0.011916, 0.006228, , , 
1731947004.290727, -9.806800, -0.239271, 0.771083, 0.052691, -0.036929, -0.005837, , , 
1731947004.301260, -9.846903, -0.358831, 0.894833, 0.028937, -0.037326, -0.033180, , , 
1731947004.311373, -9.892991, -0.434248, 0.846949, -0.000669, -0.037958, -0.061368, , , 
1731947004.321370, -9.946860, -0.376787, 0.442778, -0.100554, 0.265063, -0.036973, , , 
1731947004.331353, -9.779416, -0.467767, 0.012869, -0.154518, 0.398210, -0.007813, , , 
1731947004.341386, -9.781661, -0.599149, 1.088763, -0.088664, 0.096557, -0.010653, , , 
1731947004.351181, -9.582643, -0.573112, 1.468095, -0.067319, -0.119313, 0.005627, , , 
1731947004.361367, -9.933692, -0.155025, 0.605134, -0.110780, -0.048466, -0.004360, , , 
1731947004.371435, -9.847800, -0.067935, 0.313042, -0.117821, 0.041058, 0.007189, , , 
1731947004.381386, -9.747244, -0.281917, 0.802955, -0.092136, -0.011858, 0.015901, , , 
1731947004.391370, -9.749339, -0.325013, 0.801309, -0.078883, -0.053123, 0.016541, , , 
1731947004.401122, -9.918280, -0.177321, 0.213682, -0.071686, 0.040730, 0.010338, , , 
1731947004.411415, -9.811887, -0.200215, 0.485125, -0.026892, -0.006854, 0.009760, , , 
1731947004.420819, -9.761759, -0.233734, 0.722750, 0.034006, -0.145379, 0.007180, , , 
1731947004.431361, -9.890447, -0.105046, 0.577900, 0.050383, -0.119418, -0.009598, , , 
1731947004.441439, -9.896582, 0.041450, 0.279972, 0.033366, 0.019379, -0.002530, , , 
1731947004.451044, -9.906009, 0.003442, 0.545279, 0.038037, 0.103050, -0.007439, , , 
1731947004.461396, -9.792434, -0.235380, 0.769586, 0.061000, 0.046635, -0.002849, , , 
1731947004.471444, -9.804256, -0.341473, 0.839018, 0.073753, -0.004985, -0.019069, , , 
1731947004.481385, -9.797971, -0.455647, 0.485873, 0.069641, 0.038690, -0.013955, , , 
1731947004.491365, -9.839271, -0.528520, 0.562787, 0.109330, -0.020570, -0.016366, , , 
1731947004.500973, -9.692776, -0.484227, 0.867150, 0.130244, -0.097642, -0.002364, , , 
1731947004.511366, -9.792734, -0.377835, 0.960075, 0.166830, -0.268526, -0.008666, , , 
1731947004.520638, -9.756970, -0.248997, 0.723049, 0.191577, -0.273215, 0.002467, , , 
1731947004.531390, -9.868301, -0.163704, 0.640299, 0.203358, -0.197653, 0.019393, , , 
1731947004.541364, -9.767744, -0.180762, 0.658854, 0.196654, -0.104450, 0.033892, , , 
1731947004.550907, -9.867253, -0.259023, 0.883311, 0.190953, -0.058213, 0.026031, , , 
1731947004.561435, -9.900174, -0.465822, 1.136647, 0.180034, -0.088071, -0.004282, , , 
1731947004.571372, -9.830891, -0.392649, 0.942717, 0.167669, -0.059797, -0.018271, , , 
1731947004.581377, -9.870246, -0.429610, 0.969352, 0.148396, -0.041152, -0.032080, , , 
1731947004.591359, -9.744850, -0.578349, 1.076493, 0.129705, -0.039293, -0.045549, , , 
1731947004.600820, -9.871293, -0.594959, 0.981024, 0.120990, -0.023912, -0.076741, , , 
1731947004.610668, -9.909152, -0.482132, 0.687286, 0.097082, 0.126474, -0.051428, , , 
1731947004.621370, -9.711480, -0.477943, 0.569970, 0.109458, 0.135644, -0.017927, , , 
1731947004.631431, -9.651027, -0.384419, 1.449091, 0.197577, -0.147262, 0.015438, , , 
1731947004.641372, -9.678859, -0.394445, 1.051653, 0.183346, -0.112897, 0.057217, , , 
1731947004.650728, -9.924415, -0.109385, 0.629076, 0.159302, -0.015253, 0.067584, , , 
1731947004.661402, -9.814730, -0.208894, 0.749535, 0.176777, 0.010805, 0.075851, , , 
1731947004.671438, -9.808296, -0.453103, 1.035941, 0.161594, -0.008319, 0.053662, , , 
1731947004.681439, -9.850045, -0.491260, 0.950498, 0.151154, -0.037805, 0.011697, , , 
1731947004.691442, -9.812785, -0.532860, 0.789039, 0.148572, -0.028852, -0.009049, , , 
1731947004.700618, -9.776573, -0.525527, 0.795025, 0.150576, -0.024550, -0.002178, , , 
1731947004.711381, -9.769091, -0.509965, 0.888698, 0.159898, -0.058610, 0.013201, , , 
1731947004.721420, -9.807548, -0.479140, 0.866701, 0.154939, -0.060466, 0.012718, , , 
1731947004.731434, -9.913940, -0.449661, 0.681001, 0.136654, -0.009197, 0.005792, , , 
1731947004.741427, -9.692177, -0.404620, 0.794725, 0.118985, -0.006530, 0.016407, , , 
1731947004.750586, -9.880721, -0.301520, 0.752827, 0.105153, 0.020585, 0.022094, , , 
1731947004.761368, -9.814581, -0.257975, 0.641945, 0.115088, 0.056406, 0.048843, , , 
1731947004.771435, -9.923517, -0.276530, 0.618003, 0.122364, 0.113003, 0.052138, , , 
1731947004.781434, -9.863363, -0.441730, 0.497246, 0.115776, 0.192864, 0.022035, , , 
1731947004.791440, -9.791986, -0.519542, 0.946757, 0.112203, 0.150950, 0.005912, , , 
1731947004.800545, -9.782259, -0.455946, 1.181539, 0.133118, 0.034515, 0.000376, , , 
1731947004.811371, -9.760711, -0.276830, 0.775123, 0.120715, 0.036048, -0.013177, , , 
1731947004.821420, -9.767445, -0.320075, 0.828543, 0.082605, 0.046058, -0.053252, , , 
1731947004.831438, -9.772233, -0.462231, 1.109114, 0.082187, -0.051788, -0.060537, , , 
1731947004.841399, -9.837326, -0.396240, 0.804302, 0.101129, -0.110936, -0.039875, , , 
1731947004.850435, -9.862614, -0.292542, 0.520888, 0.133061, -0.056026, 0.001219, , , 
1731947004.860999, -9.933243, -0.348805, 0.219219, 0.162421, 0.074886, 0.028208, , , 
1731947004.871392, -9.862016, -0.481085, 0.537498, 0.151883, 0.129184, 0.035445, , , 
1731947004.881459, -9.822212, -0.484975, 0.723647, 0.167782, 0.127809, 0.026877, , , 
1731947004.891356, -9.774628, -0.372897, 0.952443, 0.143374, 0.114998, 0.009918, , , 
1731947004.900563, -9.728090, -0.236577, 1.075745, 0.109966, 0.078929, -0.024495, , , 
1731947004.911032, -9.755175, -0.264709, 1.048960, 0.067382, 0.065408, -0.058647, , , 
1731947004.921442, -9.791088, -0.334889, 1.132008, 0.029685, 0.021765, -0.075151, , , 
1731947004.931364, -9.754127, -0.402525, 1.500267, -0.000536, -0.143124, -0.070751, , , 
1731947004.941413, -9.731233, -0.479589, 1.307384, 0.010411, -0.259018, -0.062802, , , 
1731947004.950467, -9.909451, -0.255282, 0.258125, -0.017589, -0.131606, -0.076875, , , 
1731947004.961002, -9.878326, -0.354491, 0.744148, -0.063554, -0.076381, -0.112174, , , 
1731947004.971442, -9.876231, -0.426318, 1.121983, -0.075931, -0.111112, -0.141665, , , 
1731947004.981404, -9.899725, -0.220865, 0.781408, -0.096832, -0.066477, -0.153089, , , 
1731947004.991400, -9.832986, -0.288202, 0.878073, -0.108945, -0.051049, -0.125166, , , 
1731947005.000532, -9.449465, -0.753276, 1.043573, -0.056566, -0.096765, 0.005232, , , 
1731947005.010890, -9.765350, -0.368258, 1.198148, -0.076897, -0.150198, 0.013961, , , 
1731947005.021448, -9.749488, -0.382025, 1.356465, -0.100273, -0.136097, 0.019380, , , 
1731947005.031387, -9.758766, -0.370054, 1.323994, -0.107525, -0.112217, 0.015078, , , 
1731947005.041398, -9.774478, -0.369306, 1.254711, -0.093160, -0.080054, 0.011215, , , 
1731947005.050432, -9.786599, -0.418087, 1.132308, -0.070135, -0.053209, 0.004758, , , 
1731947005.061371, -9.785252, -0.408361, 1.023072, -0.037714, -0.042213, 0.002107, , , 
1731947005.071440, -9.788544, -0.409708, 0.997185, -0.004207, -0.033032, -0.000018, , , 
1731947005.081366, -9.777620, -0.409408, 1.140388, 0.016768, -0.021103, -0.000940, , , 
1731947005.091374, -9.756372, -0.383671, 1.252616, 0.029118, 0.004314, -0.004222, , , 
1731947005.101373, -9.752780, -0.374543, 1.220295, 0.044268, 0.034803, -0.006145, , , 
1731947005.111371, -9.744999, -0.379780, 1.174206, 0.065648, 0.063329, -0.008315, , , 
1731947005.121439, -9.759065, -0.369904, 1.178845, 0.084208, 0.067037, -0.012669, , , 
1731947005.131388, -9.763105, -0.381127, 1.378162, 0.076427, 0.086774, -0.013597, , , 
1731947005.140840, -9.743353, -0.379930, 1.272369, 0.073671, 0.080110, -0.013808, , , 
1731947005.151370, -9.746496, -0.434548, 1.332672, 0.057874, 0.068555, -0.011378, , , 
1731947005.160652, -9.753080, -0.443077, 1.291073, 0.031046, 0.048518, -0.006490, , , 
1731947005.171379, -9.756821, -0.413449, 1.207426, 0.013350, 0.032359, -0.002135, , , 
1731947005.181383, -9.767445, -0.415544, 1.247978, -0.008133, 0.023869, 0.001148, , , 
1731947005.191370, -9.770737, -0.408660, 1.208324, -0.012720, 0.010410, 0.001235, , , 
1731947005.201386, -9.754576, -0.388010, 1.236904, -0.019278, 0.009375, -0.000184, , , 
1731947005.211379, -9.754726, -0.378733, 1.231069, -0.021972, 0.012035, 0.000531, , , 
1731947005.221369, -9.765350, -0.389058, 1.192911, -0.022147, 0.013336, -0.000006, , , 
1731947005.231362, -9.766098, -0.398934, 1.128567, -0.015257, 0.002091, -0.000594, , , 
1731947005.241373, -9.772383, -0.409558, 1.075296, -0.005013, -0.011798, -0.003173, , , 
1731947005.251372, -9.764901, -0.398335, 1.088314, 0.002165, -0.028505, -0.000921, , , 
1731947005.261375, -9.763405, -0.414047, 1.123180, 0.003791, -0.055711, 0.000891, , , 
1731947005.271430, -9.753080, -0.418536, 1.157746, 0.002945, -0.073543, 0.000949, , , 
1731947005.281370, -9.751883, -0.398784, 1.198148, 0.000362, -0.086718, 0.001195, , , 
1731947005.291309, -9.762208, -0.396390, 1.189918, 0.001497, -0.099729, 0.001169, , , 
1731947005.301375, -9.744550, -0.397587, 1.123180, 0.005791, -0.124990, 0.001691, , , 
1731947005.311435, -9.765799, -0.399233, 1.143979, 0.013555, -0.141023, 0.001556, , , 
1731947005.321375, -9.758916, -0.389357, 1.229423, 0.020290, -0.137311, 0.000110, , , 
1731947005.331438, -9.756970, -0.416591, 1.211466, 0.044981, -0.125737, -0.000117, , , 
1731947005.341380, -9.767595, -0.385466, 1.133056, 0.096299, -0.142302, -0.007602, , , 
1731947005.351383, -9.767894, -0.387561, 1.276858, 0.091772, -0.123113, -0.008631, , , 
1731947005.360637, -9.740510, -0.366462, 1.348983, 0.089669, -0.122985, -0.010268, , , 
1731947005.371430, -9.738864, -0.370952, 1.360355, 0.083411, -0.135173, -0.008268, , , 
1731947005.381369, -9.739912, -0.372747, 1.344644, 0.075909, -0.145626, -0.007940, , , 
1731947005.391380, -9.726744, -0.365714, 1.404199, 0.065699, -0.139059, -0.007311, , , 
1731947005.401385, -9.723003, -0.394295, 1.495628, 0.050707, -0.120439, -0.007318, , , 
1731947005.411374, -9.703101, -0.417788, 1.571344, 0.031790, -0.093685, -0.005040, , , 
1731947005.421375, -9.723003, -0.415244, 1.586608, 0.017981, -0.057189, -0.000173, , , 
1731947005.431418, -9.724200, -0.408062, 1.585859, 0.002216, -0.013720, 0.002214, , , 
1731947005.441375, -9.720459, -0.408660, 1.591396, -0.011292, 0.031301, 0.000853, , , 
1731947005.451377, -9.723601, -0.391153, 1.532588, -0.018985, 0.063218, 0.000446, , , 
1731947005.461445, -9.739463, -0.376339, 1.469741, -0.026966, 0.080475, -0.001921, , , 
1731947005.471447, -9.734824, -0.383072, 1.466000, -0.039247, 0.089559, -0.002336, , , 
1731947005.481388, -9.735123, -0.394594, 1.431882, -0.053765, 0.087559, 0.000011, , , 
1731947005.490780, -9.716419, -0.403273, 1.403750, -0.078011, 0.078203, 0.006887, , , 
1731947005.501379, -9.719561, -0.420781, 1.437120, -0.101308, 0.066106, 0.011899, , , 
1731947005.511379, -9.749040, -0.394594, 1.323844, -0.107168, 0.056521, 0.013092, , , 
1731947005.521444, -9.743204, -0.387561, 1.303942, -0.104898, 0.045640, 0.012631, , , 
1731947005.531412, -9.745149, -0.359579, 1.313519, -0.096128, 0.032374, 0.012471, , , 
1731947005.540773, -9.762806, -0.377386, 1.227178, -0.078990, 0.022456, 0.009912, , , 
1731947005.551383, -9.749339, -0.380080, 1.269525, -0.067913, 0.015349, 0.006396, , , 
1731947005.561380, -9.746945, -0.393098, 1.279102, -0.058388, 0.006048, 0.004190, , , 
1731947005.571376, -9.754277, -0.404022, 1.219696, -0.040182, -0.004542, 0.002743, , , 
1731947005.581365, -9.766846, -0.419434, 1.244087, -0.014540, 0.001860, -0.000393, , , 
1731947005.590635, -9.762058, -0.421379, 1.290475, 0.000674, 0.016935, -0.000575, , , 
1731947005.601427, -9.742755, -0.411653, 1.347786, 0.007092, 0.030284, -0.001483, , , 
1731947005.611380, -9.749040, -0.412401, 1.298705, 0.012122, 0.027814, -0.000208, , , 
1731947005.621377, -9.745598, -0.374244, 1.251719, 0.013665, 0.006644, -0.002522, , , 
1731947005.631390, -9.748291, -0.367660, 1.189769, 0.013324, -0.036567, -0.001501, , , 
1731947005.641378, -9.755624, -0.357933, 1.238251, 0.009159, -0.074263, 0.000519, , , 
1731947005.651372, -9.736021, -0.368408, 1.327585, -0.001574, -0.102173, -0.000078, , , 
1731947005.661374, -9.737368, -0.397437, 1.341800, -0.004435, -0.110257, 0.000678, , , 
1731947005.671437, -9.741857, -0.410755, 1.380108, -0.006351, -0.109743, -0.001566, , , 
1731947005.681385, -9.749040, -0.405967, 1.392228, -0.005403, -0.103174, -0.000781, , , 
1731947005.691373, -9.744850, -0.412102, 1.387739, -0.004228, -0.101869, 0.001062, , , 
1731947005.701383, -9.738415, -0.401029, 1.409886, -0.006716, -0.100937, 0.001205, , , 
1731947005.711368, -9.725546, -0.382773, 1.427243, -0.006943, -0.098050, 0.001220, , , 
1731947005.721298, -9.728838, -0.358981, 1.424251, -0.009265, -0.098492, 0.001444, , , 
1731947005.731366, -9.715371, -0.353444, 1.439065, -0.010441, -0.094198, -0.000463, , , 
1731947005.741448, -9.730185, -0.388310, 1.449689, -0.009271, -0.089277, -0.002754, , , 
1731947005.751376, -9.737069, -0.392799, 1.482011, -0.007598, -0.075298, -0.001919, , , 
1731947005.761377, -9.727492, -0.400430, 1.477522, -0.004658, -0.061976, -0.000812, , , 
1731947005.771441, -9.744700, -0.413898, 1.472284, -0.003332, -0.049642, -0.001343, , , 
1731947005.781389, -9.715371, -0.403273, 1.476774, 0.001666, -0.034335, 0.000403, , , 
1731947005.790438, -9.708039, -0.386514, 1.543512, 0.000647, -0.013806, 0.002933, , , 
1731947005.801388, -9.723152, -0.380229, 1.545457, 0.000225, 0.010162, 0.000972, , , 
1731947005.811382, -9.719860, -0.391901, 1.558027, -0.000149, 0.036579, 0.001392, , , 
1731947005.821119, -9.719561, -0.385317, 1.558925, -0.001645, 0.060796, -0.001142, , , 
1731947005.831372, -9.731981, -0.376189, 1.504307, 0.002437, 0.079485, -0.001454, , , 
1731947005.841385, -9.734375, -0.387711, 1.471087, 0.001539, 0.092343, -0.004879, , , 
1731947005.851379, -9.733028, -0.403124, 1.443554, 0.000172, 0.090353, -0.004384, , , 
1731947005.861368, -9.737817, -0.414945, 1.416769, 0.000259, 0.077255, -0.004134, , , 
1731947005.871481, -9.730634, -0.398036, 1.348833, -0.003458, 0.048153, -0.002310, , , 
1731947005.881391, -9.731532, -0.393697, 1.303493, -0.006650, 0.009621, -0.001613, , , 
1731947005.891452, -9.729437, -0.383222, 1.306187, -0.009245, -0.027010, 0.001029, , , 
1731947005.901376, -9.734525, -0.378433, 1.369184, -0.006841, -0.044970, 0.001514, , , 
1731947005.911407, -9.746196, -0.394594, 1.392976, -0.006234, -0.057952, -0.000708, , , 
1731947005.921241, -9.732879, -0.395492, 1.428441, -0.004355, -0.063986, -0.001648, , , 
1731947005.931394, -9.734076, -0.403573, 1.442955, -0.006180, -0.070536, -0.000515, , , 
1731947005.941388, -9.727192, -0.402525, 1.435025, -0.006992, -0.080042, 0.000400, , , 
1731947005.951450, -9.733328, -0.378134, 1.437419, -0.008575, -0.091991, 0.002698, , , 
1731947005.961370, -9.731981, -0.389656, 1.454627, -0.015743, -0.101200, 0.001743, , , 
1731947005.971405, -9.710433, -0.395791, 1.493533, -0.014322, -0.099908, 0.002014, , , 
1731947005.981373, -9.718663, -0.381426, 1.521366, -0.010165, -0.086697, 0.000748, , , 
1731947005.991377, -9.720608, -0.394894, 1.547702, -0.005278, -0.063683, 0.000293, , , 
1731947006.001389, -9.708039, -0.393996, 1.626561, -0.004620, -0.024999, -0.000427, , , 
1731947006.011380, -9.712678, -0.403872, 1.657985, -0.002490, 0.027645, -0.000740, , , 
1731947006.021485, -9.704148, -0.400131, 1.675043, -0.003417, 0.081593, -0.000868, , , 
1731947006.031381, -9.695020, -0.393547, 1.671302, -0.002670, 0.131367, 0.000096, , , 
1731947006.041385, -9.701455, -0.371101, 1.613692, -0.005230, 0.170493, -0.001107, , , 
1731947006.051380, -9.718962, -0.365265, 1.552041, -0.010262, 0.194281, -0.002623, , , 
1731947006.061381, -9.733178, -0.374842, 1.520019, -0.015778, 0.203161, -0.003506, , , 
1731947006.070809, -9.711929, -0.388010, 1.421408, -0.019558, 0.194544, -0.002549, , , 
1731947006.081375, -9.729437, -0.403423, 1.376217, -0.021484, 0.179318, -0.001455, , , 
1731947006.091379, -9.740510, -0.416890, 1.342848, -0.028108, 0.161138, 0.000042, , , 
1731947006.101393, -9.739762, -0.392649, 1.259350, -0.021931, 0.138528, -0.000180, , , 
1731947006.111402, -9.738864, -0.403273, 1.267730, -0.014782, 0.120782, -0.001386, , , 
1731947006.121421, -9.744101, -0.375590, 1.233014, 0.003767, 0.105892, -0.002461, , , 
1731947006.131370, -9.752481, -0.378733, 1.295263, 0.007444, 0.097988, -0.003408, , , 
1731947006.141508, -9.754875, -0.398635, 1.283292, 0.010342, 0.084396, -0.004266, , , 
1731947006.151390, -9.752332, -0.379780, 1.253365, 0.009439, 0.059269, -0.005088, , , 
1731947006.161374, -9.750237, -0.393846, 1.249025, 0.002356, 0.022524, -0.002877, , , 
1731947006.171424, -9.742755, -0.402675, 1.234959, -0.006454, -0.019101, -0.000994, , , 
1731947006.181384, -9.742605, -0.398186, 1.242591, -0.012492, -0.050801, 0.000582, , , 
1731947006.191448, -9.755025, -0.409558, 1.237952, -0.013344, -0.081094, 0.003912, , , 
1731947006.201384, -9.761609, -0.409558, 1.255310, -0.012697, -0.100107, 0.003233, , , 
1731947006.211398, -9.744401, -0.396839, 1.301398, -0.006798, -0.104776, 0.002721, , , 
1731947006.221427, -9.729587, -0.392799, 1.356315, -0.001382, -0.096013, 0.001019, , , 
1731947006.231376, -9.743054, -0.377236, 1.371878, 0.001010, -0.085259, 0.000480, , , 
1731947006.241449, -9.717915, -0.373645, 1.396867, 0.005506, -0.077599, -0.000285, , , 
1731947006.251180, -9.731233, -0.387711, 1.448642, 0.003972, -0.060505, -0.001186, , , 
1731947006.261375, -9.727641, -0.390105, 1.445499, 0.003476, -0.042734, -0.000558, , , 
1731947006.271413, -9.714773, -0.388758, 1.453879, -0.000459, -0.025041, -0.001530, , , 
1731947006.281412, -9.728539, -0.416591, 1.453879, -0.002128, -0.008018, -0.001482, , , 
1731947006.291382, -9.743653, -0.401777, 1.430087, -0.002561, 0.006477, -0.001573, , , 
1731947006.301235, -9.742755, -0.399233, 1.403601, -0.002384, 0.013891, -0.001690, , , 
1731947006.311372, -9.727941, -0.405817, 1.396867, -0.003198, 0.014683, -0.000541, , , 
1731947006.321490, -9.740361, -0.386514, 1.367987, -0.005279, 0.001399, 0.001342, , , 
1731947006.331319, -9.743952, -0.396091, 1.315315, -0.005393, -0.023318, 0.000140, , , 
1731947006.341389, -9.750237, -0.387711, 1.329979, -0.007389, -0.045685, -0.001396, , , 
1731947006.351449, -9.735123, -0.382923, 1.351078, -0.005725, -0.063514, -0.001511, , , 
1731947006.361396, -9.716568, -0.375890, 1.341052, -0.003557, -0.083008, -0.001021, , , 
1731947006.371421, -9.727941, -0.368408, 1.372775, -0.002304, -0.091134, -0.001704, , , 
1731947006.381225, -9.730335, -0.384569, 1.411532, 0.001182, -0.093491, -0.001757, , , 
1731947006.391381, -9.726893, -0.400879, 1.449539, -0.000978, -0.092405, -0.000286, , , 
1731947006.401386, -9.719860, -0.407014, 1.460313, 0.000076, -0.093753, -0.001264, , , 
1731947006.411376, -9.733776, -0.413149, 1.448642, -0.001272, -0.097590, -0.000016, , , 
1731947006.421431, -9.727043, -0.410606, 1.467496, -0.001246, -0.099264, -0.000462, , , 
1731947006.431168, -9.716867, -0.404171, 1.474379, -0.002229, -0.103336, -0.000662, , , 
1731947006.441388, -9.718962, -0.385018, 1.485901, -0.006620, -0.105028, 0.000650, , , 
