SamplingTime, AccelerationX, AccelerationY, AccelerationZ, GyroX, GyroY, GyroZ, MagneticFieldX, MagneticFieldY, MagneticFieldZ
1731955632.926205, -0.024840, 0.038756, -9.819668, -0.003802, 0.003422, -0.002154, , , 
1731955632.936149, 0.017358, 0.071377, -9.832088, -0.005483, 0.003924, 0.001081, , , 
1731955632.945790, -0.012869, -0.066439, -9.811887, -0.004034, 0.001594, -0.001640, , , 
1731955632.956173, 0.014066, -0.043993, -9.827300, -0.003439, 0.003727, -0.002659, , , 
1731955632.966191, 0.064195, 0.113276, -9.831939, -0.004511, 0.003606, -0.001937, , , 
1731955632.975658, 0.010774, 0.054019, -9.819519, -0.003492, 0.003915, -0.001466, , , 
1731955632.986244, -0.030825, -0.036063, -9.825654, -0.002830, 0.003517, -0.000138, , , 
1731955632.996193, 0.018705, 0.024391, -9.823260, -0.004264, 0.004543, -0.000901, , , 
1731955633.006177, 0.006734, -0.002394, -9.817574, -0.003593, 0.002389, 0.000318, , , 
1731955633.016184, 0.013767, 0.009278, -9.803059, -0.004684, 0.003725, -0.000573, , , 
1731955633.025457, 0.043993, 0.087987, -9.823260, -0.001733, 0.003352, -0.002361, , , 
1731955633.035843, 0.022745, 0.030376, -9.824307, -0.003927, 0.004098, 0.000800, , , 
1731955633.046144, -0.021997, -0.049530, -9.813683, -0.002919, 0.004436, -0.000517, , , 
1731955633.056178, -0.004938, 0.010325, -9.824457, -0.002977, 0.004847, -0.000927, , , 
1731955633.065462, 0.030376, 0.047585, -9.829993, -0.005155, 0.004681, 0.000070, , , 
1731955633.075401, 0.017358, 0.027234, -9.811289, -0.003726, 0.003603, -0.001044, , , 
1731955633.085594, 0.005237, 0.033369, -9.831939, -0.003717, 0.004713, -0.001162, , , 
1731955633.096118, 0.018854, -0.002843, -9.810391, -0.002784, 0.004513, 0.000636, , , 
1731955633.106198, -0.009128, -0.033070, -9.818621, -0.001410, 0.003319, -0.000752, , , 
1731955633.116162, -0.010175, 0.028581, -9.815778, -0.003125, 0.004181, -0.001152, , , 
1731955633.125433, 0.011073, 0.063446, -9.812486, -0.003797, 0.003967, -0.000381, , , 
1731955633.136166, 0.012420, 0.024092, -9.823559, -0.003762, 0.004651, 0.000385, , , 
1731955633.145963, 0.023942, -0.014964, -9.813833, -0.002990, 0.003759, 0.000495, , , 
1731955633.156165, 0.019303, 0.000599, -9.816077, -0.004201, 0.004454, -0.000327, , , 
1731955633.166246, -0.010325, 0.026635, -9.812636, -0.005301, 0.002841, -0.001553, , , 
1731955633.175428, -0.012570, 0.054169, -9.819369, -0.002383, 0.004096, -0.000631, , , 
1731955633.186174, 0.012570, 0.041300, -9.824158, -0.003581, 0.003798, -0.000792, , , 
1731955633.195888, 0.028132, -0.004489, -9.827599, -0.003905, 0.004766, -0.000093, , , 
1731955633.206208, 0.007931, -0.019004, -9.819369, -0.004149, 0.005258, -0.001876, , , 
1731955633.216033, 0.004639, 0.009726, -9.810840, -0.002937, 0.004652, 0.000097, , , 
1731955633.226237, 0.004938, 0.050278, -9.825355, -0.003587, 0.004373, -0.002753, , , 
1731955633.236206, -0.002993, 0.028581, -9.820417, -0.003892, 0.003492, -0.000413, , , 
1731955633.245748, 0.023343, 0.007332, -9.813982, -0.003637, 0.003482, -0.000580, , , 
1731955633.256168, 0.026336, -0.007931, -9.812037, -0.005352, 0.002969, 0.000378, , , 
1731955633.266086, 0.024690, 0.010924, -9.818022, -0.003988, 0.003849, -0.001708, , , 
1731955633.276162, -0.012869, 0.035165, -9.829245, -0.003927, 0.004636, -0.001796, , , 
1731955633.285538, 0.000299, 0.040851, -9.829993, -0.004556, 0.005851, -0.000580, , , 
1731955633.296193, -0.001646, 0.007482, -9.821015, -0.003427, 0.004631, -0.001815, , , 
1731955633.306158, 0.008080, -0.006135, -9.815030, -0.004786, 0.003344, -0.001356, , , 
1731955633.316184, 0.033818, 0.008230, -9.818172, -0.003704, 0.003340, 0.000740, , , 
1731955633.326159, 0.022296, 0.047585, -9.816526, -0.003121, 0.002733, -0.000190, , , 
1731955633.336167, -0.003142, 0.041450, -9.817574, -0.003781, 0.004086, -0.001478, , , 
1731955633.345567, 0.002544, 0.016310, -9.819369, -0.004041, 0.003862, 0.000534, , , 
1731955633.355641, 0.004639, 0.003442, -9.818771, -0.003329, 0.002659, -0.000773, , , 
1731955633.366179, 0.006883, -0.001496, -9.812187, -0.004527, 0.003324, -0.001409, , , 
1731955633.376164, 0.013018, 0.029030, -9.820716, -0.003329, 0.005348, -0.001368, , , 
1731955633.386170, 0.013916, 0.044143, -9.812187, -0.005566, 0.005010, 0.000336, , , 
1731955633.396179, 0.008679, 0.025588, -9.819968, -0.002710, 0.003077, -0.001425, , , 
1731955633.406231, 0.000000, -0.011672, -9.818172, -0.003176, 0.003796, -0.000480, , , 
1731955633.416162, 0.005986, 0.015862, -9.824607, -0.002640, 0.004491, -0.000663, , , 
1731955633.426158, 0.019154, 0.036212, -9.821165, -0.004161, 0.003681, 0.000191, , , 
1731955633.436164, 0.020500, 0.025588, -9.828347, -0.002049, 0.004465, -0.000630, , , 
1731955633.445474, 0.017508, 0.030825, -9.814431, -0.003668, 0.003196, -0.002643, , , 
1731955633.456168, 0.006285, 0.003591, -9.830143, -0.003651, 0.003232, -0.000757, , , 
1731955633.466165, -0.003891, -0.010325, -9.826701, -0.003616, 0.003733, -0.001584, , , 
1731955633.476160, 0.006135, 0.028282, -9.818621, -0.004133, 0.005246, -0.001894, , , 
1731955633.486158, 0.006883, 0.043993, -9.818172, -0.002959, 0.004044, -0.002175, , , 
1731955633.496159, 0.015862, 0.004639, -9.822960, -0.004885, 0.002516, -0.000731, , , 
1731955633.506161, 0.017059, 0.012420, -9.818322, -0.004792, 0.003854, -0.001447, , , 
1731955633.516163, -0.003741, 0.017657, -9.818621, -0.004093, 0.005314, 0.000254, , , 
1731955633.526156, -0.007183, 0.011223, -9.830442, -0.004162, 0.004596, -0.000539, , , 
1731955633.536242, -0.003292, 0.046088, -9.813384, -0.002389, 0.004776, -0.001183, , , 
1731955633.545248, 0.017059, 0.034716, -9.825355, -0.005636, 0.005356, 0.000096, , , 
1731955633.556163, 0.017208, 0.007632, -9.819070, -0.002922, 0.004442, -0.001368, , , 
1731955633.566153, 0.007482, 0.005986, -9.807249, -0.004106, 0.002727, -0.001542, , , 
1731955633.576155, 0.007482, 0.036661, -9.813683, -0.005653, 0.002839, -0.001530, , , 
1731955633.586163, 0.001047, 0.034267, -9.828647, -0.004713, 0.003568, -0.001159, , , 
1731955633.596158, -0.009128, 0.028132, -9.831191, -0.002421, 0.003565, -0.001591, , , 
1731955633.606155, 0.017657, 0.021847, -9.827899, -0.003452, 0.003362, -0.001113, , , 
1731955633.616157, 0.016759, -0.001796, -9.819519, -0.003696, 0.003978, 0.001823, , , 
1731955633.626155, 0.013318, 0.029778, -9.832537, -0.004207, 0.003618, -0.000400, , , 
1731955633.636191, 0.007781, 0.039953, -9.826402, -0.004064, 0.004829, -0.000322, , , 
1731955633.646158, 0.005686, 0.029479, -9.824756, -0.003753, 0.003480, -0.001500, , , 
1731955633.656156, -0.004040, 0.007332, -9.824607, -0.004088, 0.003939, -0.001210, , , 
1731955633.666154, 0.019303, 0.018256, -9.818172, -0.003070, 0.004705, -0.001516, , , 
1731955633.676156, 0.003591, 0.011971, -9.818022, -0.003735, 0.003662, -0.001403, , , 
1731955633.686154, 0.006734, 0.026187, -9.824607, -0.002968, 0.003535, -0.000634, , , 
1731955633.696180, 0.006734, 0.039804, -9.824307, -0.003251, 0.005258, -0.002243, , , 
1731955633.706165, 0.001047, 0.018555, -9.836578, -0.003186, 0.004397, 0.001181, , , 
1731955633.716038, 0.016011, -0.001047, -9.827899, -0.003873, 0.003885, -0.000621, , , 
1731955633.726208, 0.019154, 0.014365, -9.822362, -0.003183, 0.003802, -0.001445, , , 
1731955633.736165, 0.017508, 0.029928, -9.827001, -0.004164, 0.004330, -0.001136, , , 
1731955633.746183, 0.006883, 0.028880, -9.819519, -0.002720, 0.003732, -0.001393, , , 
1731955633.756155, 0.005836, 0.017059, -9.827599, -0.003930, 0.003847, -0.001830, , , 
1731955633.766160, 0.008829, 0.004938, -9.818771, -0.003026, 0.004476, -0.000640, , , 
1731955633.776110, 0.008080, 0.000599, -9.824008, -0.002529, 0.004476, -0.002570, , , 
1731955633.786166, 0.015263, 0.025139, -9.819818, -0.004606, 0.003139, -0.001933, , , 
1731955633.796161, 0.004938, 0.032621, -9.821763, -0.003631, 0.004503, -0.001498, , , 
1731955633.806157, 0.005686, 0.024241, -9.821614, -0.003796, 0.005608, -0.001283, , , 
1731955633.816159, 0.005836, 0.013916, -9.828048, -0.004016, 0.003795, -0.000571, , , 
1731955633.826019, 0.015562, 0.013018, -9.819369, -0.002894, 0.004617, -0.000357, , , 
1731955633.836165, 0.018555, 0.019303, -9.832537, -0.004325, 0.004304, -0.001210, , , 
1731955633.845740, 0.001646, 0.023343, -9.817125, -0.003157, 0.004048, -0.000524, , , 
1731955633.856159, 0.007482, 0.027234, -9.827300, -0.004862, 0.003492, -0.000080, , , 
1731955633.866165, 0.013916, 0.010624, -9.823110, -0.003357, 0.003943, -0.001718, , , 
1731955633.875933, 0.003442, 0.009128, -9.817424, -0.004420, 0.003402, -0.001966, , , 
1731955633.886246, 0.009427, 0.026635, -9.822811, -0.003440, 0.004303, -0.000470, , , 
1731955633.896236, 0.012570, 0.027533, -9.815778, -0.002802, 0.004041, -0.000002, , , 
1731955633.906168, 0.015862, 0.022446, -9.818920, -0.003164, 0.003191, -0.001370, , , 
1731955633.916163, 0.017957, 0.013467, -9.821614, -0.003620, 0.003042, -0.000876, , , 
1731955633.925861, 0.009876, 0.009726, -9.822063, -0.003958, 0.003586, -0.001267, , , 
1731955633.936240, 0.012719, 0.017208, -9.828497, -0.003272, 0.004421, 0.000728, , , 
1731955633.946162, 0.006285, 0.019603, -9.818322, -0.004988, 0.005051, -0.001171, , , 
1731955633.956156, -0.000150, 0.019004, -9.820716, -0.003670, 0.003291, 0.000483, , , 
1731955633.966206, 0.005836, 0.009128, -9.814581, -0.003441, 0.002973, -0.001530, , , 
1731955633.975739, 0.005836, 0.009128, -9.814581, -0.003324, 0.004742, -0.000440, , , 
1731955633.986156, 0.004190, 0.019453, -9.809942, -0.003699, 0.003791, -0.000080, , , 
1731955633.996159, 0.005088, 0.023343, -9.825355, -0.003870, 0.003018, -0.000511, , , 
1731955634.006154, 0.005387, 0.018555, -9.816227, -0.002932, 0.004546, -0.000542, , , 
1731955634.016156, 0.013318, 0.008380, -9.827300, -0.004557, 0.004333, -0.000751, , , 
1731955634.025688, 0.006285, 0.019603, -9.816526, -0.004138, 0.005202, -0.001281, , , 
1731955634.036154, 0.021398, 0.023942, -9.810541, -0.002986, 0.004702, -0.001393, , , 
1731955634.046154, 0.015113, 0.015413, -9.822063, -0.003526, 0.003199, 0.000523, , , 
1731955634.056154, 0.003442, 0.016610, -9.813533, -0.002776, 0.003157, -0.000188, , , 
1731955634.066173, 0.018705, 0.016759, -9.821015, -0.004675, 0.003688, -0.002864, , , 
1731955634.075599, 0.018705, 0.016759, -9.821015, -0.003156, 0.002736, -0.001733, , , 
1731955634.086220, 0.019752, 0.016161, -9.832986, -0.004518, 0.002998, 0.000729, , , 
1731955634.096151, 0.016011, 0.028880, -9.827450, -0.003213, 0.003624, -0.000077, , , 
1731955634.106153, 0.003442, 0.020800, -9.836877, -0.003292, 0.004637, 0.000996, , , 
1731955634.116152, 0.003891, 0.008380, -9.822811, -0.005442, 0.002669, -0.000693, , , 
1731955634.125551, 0.003891, 0.008380, -9.822811, -0.003259, 0.004906, -0.000494, , , 
1731955634.136154, 0.000599, 0.006285, -9.823709, -0.002741, 0.003809, -0.001385, , , 
1731955634.146153, 0.014515, 0.018854, -9.818621, -0.003682, 0.004980, -0.001552, , , 
1731955634.156161, 0.002693, 0.023493, -9.814730, -0.003459, 0.002762, -0.000401, , , 
1731955634.166152, 0.011971, 0.010175, -9.811887, -0.006675, 0.003901, -0.000952, , , 
1731955634.175370, 0.011971, 0.010175, -9.811887, -0.003421, 0.005034, -0.001610, , , 
1731955634.186227, 0.008080, 0.019453, -9.820866, -0.003280, 0.003191, -0.001344, , , 
1731955634.196177, 0.012719, 0.027384, -9.837026, -0.002074, 0.003831, -0.000564, , , 
1731955634.205577, 0.012719, 0.027384, -9.837026, -0.003244, 0.004167, -0.002091, , , 
1731955634.216197, 0.014964, 0.005986, -9.818322, -0.003145, 0.003564, -0.001610, , , 
1731955634.225354, 0.014964, 0.005986, -9.818322, -0.004046, 0.002931, -0.001345, , , 
1731955634.236154, 0.012270, 0.018405, -9.825355, -0.002873, 0.003009, -0.001076, , , 
1731955634.246154, 0.024690, 0.035464, -9.818322, -0.004941, 0.005863, -0.001615, , , 
1731955634.256226, 0.005387, 0.031274, -9.818471, -0.003406, 0.005065, -0.000204, , , 
1731955634.266153, 0.002693, 0.016610, -9.829545, -0.004041, 0.004825, -0.001044, , , 
1731955634.275255, 0.002693, 0.016610, -9.829545, -0.004118, 0.004833, -0.001601, , , 
1731955634.286151, 0.016610, 0.019004, -9.814880, -0.003192, 0.003736, -0.000150, , , 
1731955634.296157, 0.015712, 0.023343, -9.823409, -0.002887, 0.004438, -0.001373, , , 
1731955634.306204, 0.008080, 0.018854, -9.823260, -0.003793, 0.003642, -0.001340, , , 
1731955634.316180, 0.002394, 0.010774, -9.821913, -0.004367, 0.003657, -0.000709, , , 
1731955634.326163, 0.008978, 0.004639, -9.814581, -0.002829, 0.003519, -0.001105, , , 
1731955634.336169, 0.012270, 0.012719, -9.812636, -0.003606, 0.004084, -0.001334, , , 
1731955634.346152, 0.010624, 0.026486, -9.810989, -0.004848, 0.004837, -0.000762, , , 
1731955634.356209, 0.011372, 0.030227, -9.821464, -0.004263, 0.005235, -0.003317, , , 
1731955634.366149, 0.011522, 0.019303, -9.830442, -0.003242, 0.004885, 0.000092, , , 
1731955634.376160, 0.005088, 0.009726, -9.826552, -0.003023, 0.002983, -0.001159, , , 
1731955634.386147, 0.001796, 0.005986, -9.822512, -0.004570, 0.003607, 0.001407, , , 
1731955634.396151, 0.013916, 0.018555, -9.823260, -0.004173, 0.003605, -0.000527, , , 
1731955634.406191, 0.009128, 0.035913, -9.816975, -0.003693, 0.004119, -0.001634, , , 
1731955634.416191, 0.006734, 0.015862, -9.817125, -0.004251, 0.003365, -0.000720, , , 
1731955634.426149, 0.010774, 0.007183, -9.808895, -0.003439, 0.004302, -0.001934, , , 
1731955634.436167, 0.010774, 0.007183, -9.808895, -0.002496, 0.004850, -0.000053, , , 
1731955634.446150, 0.007632, 0.019154, -9.829844, -0.002416, 0.003542, -0.001498, , , 
1731955634.456189, 0.018705, 0.024989, -9.827749, -0.002927, 0.002958, -0.001008, , , 
1731955634.466148, 0.019004, 0.023194, -9.823858, -0.003762, 0.004263, -0.000244, , , 
1731955634.476150, 0.020500, 0.014664, -9.828347, -0.003261, 0.005633, -0.001157, , , 
1731955634.486149, 0.007931, 0.007183, -9.822212, -0.003669, 0.003987, 0.001175, , , 
1731955634.496174, 0.000150, 0.021997, -9.832537, -0.003908, 0.003171, -0.000179, , , 
1731955634.506198, 0.001347, 0.027833, -9.822960, -0.002838, 0.003705, -0.000693, , , 
1731955634.516175, 0.013018, 0.016161, -9.819519, -0.003554, 0.004883, -0.001098, , , 
1731955634.526143, 0.003442, 0.019752, -9.820417, -0.003573, 0.004182, -0.000461, , , 
1731955634.536154, 0.019303, 0.012420, -9.818022, -0.005653, 0.002750, -0.001233, , , 
1731955634.546148, 0.005237, 0.013318, -9.821763, -0.003581, 0.003464, -0.000420, , , 
1731955634.556190, 0.005986, 0.023643, -9.815928, -0.004613, 0.004555, -0.000606, , , 
1731955634.566142, 0.009427, 0.023343, -9.816676, -0.003275, 0.003017, -0.001599, , , 
1731955634.576153, 0.011522, 0.017508, -9.827899, -0.002809, 0.003377, -0.000098, , , 
1731955634.586153, 0.010624, 0.017807, -9.826701, -0.002977, 0.004628, 0.000055, , , 
1731955634.596185, -0.000599, 0.018854, -9.830442, -0.003376, 0.004930, 0.000918, , , 
1731955634.606154, 0.015263, 0.015413, -9.820117, -0.002325, 0.003541, -0.000418, , , 
1731955634.616214, 0.017059, 0.031723, -9.825205, -0.004146, 0.004405, -0.001913, , , 
1731955634.626167, 0.017059, 0.031723, -9.825205, -0.004136, 0.003318, -0.002939, , , 
1731955634.635590, -0.001646, 0.016161, -9.828497, -0.004827, 0.004567, -0.001225, , , 
1731955634.645417, 0.022446, 0.008978, -9.816676, -0.002131, 0.003149, -0.000218, , , 
1731955634.656157, 0.013467, 0.009876, -9.824158, -0.002682, 0.001678, -0.000917, , , 
1731955634.666186, 0.010475, 0.016460, -9.823559, -0.004490, 0.003968, -0.001370, , , 
1731955634.676145, 0.010475, 0.016460, -9.823559, -0.003446, 0.003882, -0.001783, , , 
1731955634.686156, 0.011223, 0.019303, -9.832088, -0.003704, 0.004621, -0.001607, , , 
1731955634.696207, 0.007931, 0.012270, -9.817125, -0.003089, 0.004669, -0.002091, , , 
1731955634.706228, 0.019603, 0.014515, -9.822661, -0.003749, 0.003818, 0.000336, , , 
1731955634.716158, 0.004788, 0.020800, -9.824457, -0.003906, 0.003557, -0.000773, , , 
1731955634.726210, 0.014964, 0.028282, -9.827001, -0.003465, 0.003837, -0.000554, , , 
1731955634.735367, 0.006135, 0.022745, -9.836129, -0.003235, 0.003394, -0.002560, , , 
1731955634.746187, 0.007781, 0.006285, -9.814730, -0.004530, 0.003725, -0.001950, , , 
1731955634.756260, 0.001047, 0.004938, -9.814431, -0.002112, 0.003963, -0.001570, , , 
1731955634.766154, 0.013018, 0.020201, -9.823110, -0.005203, 0.004018, -0.001662, , , 
1731955634.776230, 0.007482, 0.021697, -9.826701, -0.004788, 0.005718, -0.002477, , , 
1731955634.786172, 0.013467, 0.016161, -9.824307, -0.002573, 0.003109, -0.000113, , , 
1731955634.796087, 0.019902, 0.019603, -9.825953, -0.005162, 0.004155, -0.000658, , , 
1731955634.806216, 0.026486, 0.018405, -9.840618, -0.003991, 0.002148, -0.000823, , , 
1731955634.816233, 0.012570, 0.020201, -9.819369, -0.003057, 0.004528, -0.001753, , , 
1731955634.826155, 0.012420, 0.034866, -9.813084, -0.004571, 0.005186, -0.001049, , , 
1731955634.836223, 0.010774, 0.030825, -9.824307, -0.003357, 0.005219, -0.002114, , , 
1731955634.846225, 0.010475, 0.023643, -9.826552, -0.003168, 0.004923, -0.002076, , , 
1731955634.856211, 0.008679, 0.019752, -9.837326, -0.004170, 0.004233, -0.001076, , , 
1731955634.866234, 0.000599, 0.016011, -9.822811, -0.004309, 0.003307, -0.000326, , , 
1731955634.876222, 0.006434, 0.023643, -9.819668, -0.003610, 0.003784, -0.001689, , , 
1731955634.886156, 0.021548, 0.015113, -9.826851, -0.002431, 0.003701, -0.003321, , , 
1731955634.896231, 0.007632, 0.007632, -9.835231, -0.002283, 0.002786, -0.000253, , , 
1731955634.906254, 0.011522, 0.014066, -9.825355, -0.002958, 0.004157, -0.000349, , , 
1731955634.915773, 0.011821, 0.030975, -9.826701, -0.003054, 0.005189, -0.000753, , , 
1731955634.926207, 0.007332, 0.028730, -9.831789, -0.004016, 0.004372, -0.001065, , , 
1731955634.936152, 0.017657, 0.014216, -9.832537, -0.004121, 0.005251, -0.000965, , , 
1731955634.946192, 0.016310, 0.007781, -9.825355, -0.003521, 0.004249, -0.000929, , , 
1731955634.956237, 0.015562, 0.008380, -9.826402, -0.003657, 0.004909, -0.001104, , , 
1731955634.966147, 0.004190, 0.020051, -9.824756, -0.002830, 0.004662, -0.001161, , , 
1731955634.976179, 0.011672, 0.029778, -9.820417, -0.004111, 0.004498, -0.001495, , , 
1731955634.986146, 0.013318, 0.013916, -9.811289, -0.002700, 0.003777, 0.000229, , , 
1731955634.996221, 0.010325, 0.022745, -9.812037, -0.002653, 0.004360, -0.001592, , , 
1731955635.006194, 0.005537, 0.014066, -9.817424, -0.004776, 0.006523, -0.000914, , , 
1731955635.016161, 0.026486, 0.009278, -9.818920, -0.003257, 0.004987, -0.000204, , , 
1731955635.026111, 0.008380, 0.030676, -9.818172, -0.003844, 0.005688, -0.001781, , , 
1731955635.036215, 0.006734, 0.023343, -9.836278, -0.002795, 0.004269, -0.000241, , , 
1731955635.045593, -0.001197, 0.019154, -9.818771, -0.002901, 0.003489, -0.002634, , , 
1731955635.056187, 0.015862, 0.009726, -9.823409, -0.002558, 0.002411, -0.000356, , , 
1731955635.066169, 0.006434, 0.010774, -9.815928, -0.005157, 0.003468, -0.001015, , , 
1731955635.076025, 0.001945, 0.020351, -9.823559, -0.003556, 0.004842, -0.000109, , , 
1731955635.086267, 0.023643, 0.022296, -9.815329, -0.004237, 0.004136, 0.000289, , , 
1731955635.096147, 0.006285, 0.017059, -9.820716, -0.003562, 0.002816, -0.001597, , , 
1731955635.106188, 0.002544, 0.014365, -9.834932, -0.003154, 0.004484, -0.002874, , , 
1731955635.116145, 0.013318, 0.023493, -9.814431, -0.004347, 0.004417, -0.001238, , , 
1731955635.126171, 0.011672, 0.024391, -9.819668, -0.004324, 0.003281, -0.002483, , , 
1731955635.136216, 0.013318, 0.020051, -9.827899, -0.003109, 0.004842, -0.000672, , , 
1731955635.146141, 0.005537, 0.017657, -9.826402, -0.003894, 0.004449, -0.001102, , , 
1731955635.156187, 0.005088, 0.009577, -9.827001, -0.004703, 0.003771, 0.000716, , , 
1731955635.166152, 0.008380, 0.017657, -9.828796, -0.002268, 0.003571, -0.001226, , , 
1731955635.175948, 0.015413, 0.018405, -9.817574, -0.003285, 0.004537, -0.000744, , , 
1731955635.186145, 0.003741, 0.021249, -9.823409, -0.003596, 0.003512, -0.002135, , , 
1731955635.196144, 0.005088, 0.020051, -9.838224, -0.003714, 0.003725, -0.000791, , , 
1731955635.206034, 0.004788, 0.023493, -9.823559, -0.003988, 0.003605, -0.001933, , , 
1731955635.216149, 0.007931, 0.008978, -9.826701, -0.002788, 0.005477, -0.000138, , , 
1731955635.225754, 0.002095, 0.018555, -9.832088, -0.005310, 0.003400, -0.000251, , , 
1731955635.236168, 0.009128, 0.024241, -9.832537, -0.003037, 0.004261, 0.000179, , , 
1731955635.246144, 0.000599, 0.020051, -9.813533, -0.004707, 0.004410, -0.001277, , , 
1731955635.256147, 0.008829, 0.023194, -9.815928, -0.003639, 0.004347, -0.002351, , , 
1731955635.266152, 0.003741, 0.020351, -9.822362, -0.003601, 0.003807, -0.001080, , , 
1731955635.275659, 0.010026, 0.017358, -9.819519, -0.003336, 0.004644, -0.001401, , , 
1731955635.286215, 0.008380, 0.027683, -9.824607, -0.003309, 0.004277, -0.000031, , , 
1731955635.296144, 0.018106, 0.017807, -9.827001, -0.004186, 0.002193, -0.002615, , , 
1731955635.306147, 0.005836, 0.017208, -9.829395, -0.002535, 0.004019, -0.000523, , , 
1731955635.316144, 0.005537, 0.015113, -9.818771, -0.003866, 0.003590, -0.003821, , , 
1731955635.325641, 0.011672, 0.011073, -9.834632, -0.004167, 0.003067, -0.002228, , , 
1731955635.336142, 0.013318, 0.015712, -9.821913, -0.004340, 0.003495, -0.001239, , , 
1731955635.346171, 0.004489, 0.016610, -9.823559, -0.001835, 0.002996, -0.001213, , , 
1731955635.356139, 0.014365, 0.024541, -9.831639, -0.002723, 0.003867, -0.000813, , , 
1731955635.366203, 0.007183, 0.015263, -9.824756, -0.003490, 0.004817, -0.001366, , , 
1731955635.375562, 0.009128, 0.026187, -9.820566, -0.004531, 0.002529, -0.002767, , , 
1731955635.386167, 0.013018, 0.019453, -9.810989, -0.004933, 0.004279, -0.000753, , , 
1731955635.396180, 0.004489, 0.010026, -9.819519, -0.003256, 0.003946, -0.002153, , , 
1731955635.406216, 0.011372, 0.018106, -9.835530, -0.003348, 0.002334, 0.000312, , , 
1731955635.416146, 0.002993, 0.027683, -9.818771, -0.002899, 0.003711, -0.000894, , , 
1731955635.425409, 0.012869, 0.019603, -9.829096, -0.002148, 0.004483, -0.001201, , , 
1731955635.436151, 0.010325, 0.026486, -9.831789, -0.003402, 0.005075, -0.003001, , , 
1731955635.446217, 0.013168, 0.024092, -9.827899, -0.004267, 0.003327, -0.001713, , , 
1731955635.456141, 0.015862, 0.022895, -9.828647, -0.002837, 0.004676, 0.000126, , , 
1731955635.466143, 0.017208, 0.011821, -9.820117, -0.004198, 0.004605, 0.000185, , , 
1731955635.475317, 0.014515, 0.008679, -9.817873, -0.005058, 0.004623, 0.000986, , , 
1731955635.486140, 0.008829, 0.026187, -9.822661, -0.004635, 0.004003, -0.000472, , , 
1731955635.496166, 0.005237, 0.013168, -9.828347, -0.001980, 0.002563, -0.000612, , , 
1731955635.506158, 0.012121, 0.016011, -9.831340, -0.003858, 0.004556, -0.000146, , , 
1731955635.516148, 0.014964, 0.019902, -9.818621, -0.004309, 0.003302, -0.000280, , , 
1731955635.525300, 0.016011, 0.009577, -9.810241, -0.004827, 0.004670, -0.001298, , , 
1731955635.536143, 0.011372, 0.025588, -9.826103, -0.003995, 0.004906, -0.002049, , , 
1731955635.546139, 0.011672, 0.033070, -9.823409, -0.002886, 0.003245, -0.001876, , , 
1731955635.556063, 0.008829, 0.023792, -9.809942, -0.004073, 0.003630, -0.000976, , , 
1731955635.566167, 0.012869, 0.010774, -9.824158, -0.003344, 0.005138, -0.002857, , , 
1731955635.575170, 0.002245, 0.021249, -9.835979, -0.005640, 0.004595, 0.000251, , , 
1731955635.586158, 0.005986, 0.006883, -9.832537, -0.004781, 0.003813, -0.001141, , , 
1731955635.596141, 0.002843, 0.021997, -9.818322, -0.003517, 0.002576, -0.000183, , , 
1731955635.606143, 0.020949, 0.028581, -9.824607, -0.004196, 0.003950, -0.000671, , , 
1731955635.616141, 0.007632, 0.022595, -9.817274, -0.004326, 0.002798, -0.000515, , , 
1731955635.626138, 0.003292, 0.014365, -9.813833, -0.004416, 0.004066, -0.000159, , , 
1731955635.636222, 0.004190, 0.026635, -9.823858, -0.003596, 0.002939, 0.000257, , , 
1731955635.646158, 0.021997, 0.012270, -9.824756, -0.001674, 0.004538, -0.001840, , , 
1731955635.656230, 0.006734, 0.019453, -9.826701, -0.003902, 0.003215, -0.001699, , , 
1731955635.666217, 0.016011, 0.003741, -9.820866, -0.003931, 0.002717, -0.001283, , , 
1731955635.676160, 0.005088, 0.002993, -9.826253, -0.003425, 0.002389, -0.000561, , , 
1731955635.686161, 0.000150, 0.017807, -9.822960, -0.003355, 0.004765, -0.004548, , , 
1731955635.696140, 0.011821, 0.017657, -9.821913, -0.004003, 0.004395, -0.001804, , , 
1731955635.706200, -0.003442, 0.018854, -9.815928, -0.003439, 0.002988, -0.000122, , , 
1731955635.716163, 0.011672, 0.017657, -9.815030, -0.002896, 0.004559, -0.001399, , , 
1731955635.725937, 0.011522, 0.016909, -9.808895, -0.002602, 0.004675, -0.002569, , , 
1731955635.736141, 0.016161, 0.019453, -9.819968, -0.004391, 0.003252, -0.001058, , , 
1731955635.746148, 0.017208, 0.022296, -9.814282, -0.002798, 0.004259, -0.002298, , , 
1731955635.756040, 0.007332, 0.008978, -9.831041, -0.005029, 0.004371, -0.001226, , , 
1731955635.766148, 0.007183, 0.020500, -9.812187, -0.003816, 0.003019, -0.001152, , , 
1731955635.776145, 0.004339, 0.028132, -9.812336, -0.003837, 0.004187, -0.000880, , , 
1731955635.786142, -0.000299, 0.015263, -9.840767, -0.003350, 0.003466, 0.000025, , , 
1731955635.796145, -0.007482, 0.015862, -9.825804, -0.002978, 0.002479, -0.001773, , , 
1731955635.805954, 0.004938, 0.026037, -9.813833, -0.004591, 0.004548, -0.001156, , , 
1731955635.815532, 0.016310, 0.026187, -9.824008, -0.006242, 0.003245, -0.002490, , , 
1731955635.826170, 0.011971, 0.020800, -9.841366, -0.003671, 0.004256, -0.000743, , , 
1731955635.836143, -0.001945, 0.021847, -9.812785, -0.004710, 0.004639, -0.001061, , , 
1731955635.846147, 0.013467, 0.018106, -9.821464, -0.003810, 0.005530, -0.001040, , , 
1731955635.855868, 0.006434, 0.016161, -9.822063, -0.003053, 0.004078, -0.000599, , , 
1731955635.866147, 0.014964, 0.023194, -9.825355, -0.002682, 0.004237, -0.002051, , , 
1731955635.876149, 0.006285, 0.036512, -9.819968, -0.003708, 0.003986, 0.000018, , , 
1731955635.886145, 0.005537, 0.018854, -9.830742, -0.003692, 0.004336, -0.001410, , , 
1731955635.896233, 0.007781, 0.013617, -9.814132, -0.003913, 0.002501, -0.000036, , , 
1731955635.905789, 0.019004, 0.017807, -9.824158, -0.004744, 0.005561, -0.001169, , , 
1731955635.916172, 0.011821, 0.013018, -9.820566, -0.003035, 0.003107, -0.000426, , , 
1731955635.925644, 0.004639, 0.014814, -9.814431, -0.003351, 0.003897, -0.001773, , , 
1731955635.936215, 0.010774, 0.023194, -9.826253, -0.003445, 0.003788, -0.002014, , , 
1731955635.945571, 0.009128, 0.022146, -9.825055, -0.002899, 0.003674, -0.000254, , , 
1731955635.955714, 0.000898, 0.017508, -9.821015, -0.003646, 0.004521, -0.000785, , , 
1731955635.966150, 0.014216, 0.017957, -9.822063, -0.003047, 0.005901, -0.001251, , , 
1731955635.976138, 0.011821, 0.027833, -9.829096, -0.004664, 0.003930, -0.001043, , , 
1731955635.986212, 0.023194, 0.011821, -9.827450, -0.003589, 0.003510, -0.001929, , , 
1731955635.996138, 0.000748, 0.022595, -9.827899, -0.002385, 0.002457, -0.000733, , , 
1731955636.005609, 0.002394, 0.011223, -9.824008, -0.004262, 0.005553, 0.000379, , , 
1731955636.016142, 0.010175, 0.004489, -9.815928, -0.003497, 0.005258, -0.000106, , , 
1731955636.026151, 0.007183, 0.011672, -9.807997, -0.002825, 0.003433, -0.000351, , , 
1731955636.036147, 0.005237, 0.029628, -9.807548, -0.002964, 0.005261, -0.000464, , , 
1731955636.046206, 0.002544, 0.020650, -9.821015, -0.004001, 0.002453, -0.000814, , , 
1731955636.055530, 0.010026, 0.011372, -9.825654, -0.003187, 0.003466, -0.001327, , , 
1731955636.066137, 0.000599, 0.005686, -9.832837, -0.004090, 0.005098, -0.001725, , , 
1731955636.076187, 0.008679, 0.010026, -9.831340, -0.005683, 0.003469, 0.000199, , , 
1731955636.086205, 0.025438, 0.024690, -9.826552, -0.003897, 0.002882, -0.002152, , , 
1731955636.096176, 0.009278, 0.007033, -9.829844, -0.004236, 0.004267, -0.001532, , , 
1731955636.105440, 0.003741, 0.030376, -9.829844, -0.002212, 0.003983, 0.000989, , , 
1731955636.115769, -0.006584, 0.025289, -9.823110, -0.004049, 0.004394, -0.001029, , , 
1731955636.126141, 0.007781, 0.017957, -9.822512, -0.004000, 0.003326, -0.000770, , , 
1731955636.136141, 0.005387, 0.013916, -9.818621, -0.003760, 0.002891, -0.001124, , , 
1731955636.146140, 0.018555, 0.021697, -9.836428, -0.003335, 0.004622, -0.000051, , , 
1731955636.155355, 0.011971, 0.012719, -9.837026, -0.003047, 0.003115, -0.000066, , , 
1731955636.166143, 0.003891, 0.026336, -9.829844, -0.003059, 0.003412, -0.000795, , , 
1731955636.176148, -0.007033, 0.027234, -9.823409, -0.003104, 0.002302, -0.000448, , , 
1731955636.186144, 0.009726, 0.013617, -9.817574, -0.003316, 0.003612, -0.001764, , , 
1731955636.196215, 0.013168, 0.016310, -9.832986, -0.003773, 0.003189, -0.000966, , , 
1731955636.205403, 0.003142, 0.014814, -9.814581, -0.002469, 0.004063, -0.001348, , , 
1731955636.216136, 0.011073, 0.021249, -9.827749, -0.003626, 0.002994, -0.001328, , , 
1731955636.226159, 0.012270, 0.024391, -9.818172, -0.004714, 0.004849, -0.002815, , , 
1731955636.236154, 0.009726, 0.020949, -9.828048, -0.003997, 0.003646, -0.001574, , , 
1731955636.246137, 0.005537, 0.013168, -9.810241, -0.003167, 0.004919, -0.000515, , , 
1731955636.255324, 0.018405, 0.015413, -9.814730, -0.004198, 0.003824, -0.001352, , , 
1731955636.266134, 0.010026, 0.017059, -9.838074, -0.004620, 0.003887, -0.000434, , , 
1731955636.276143, 0.018854, 0.016759, -9.815030, -0.003639, 0.003351, -0.000872, , , 
1731955636.286177, 0.012570, 0.014814, -9.821763, -0.004240, 0.005022, 0.000781, , , 
1731955636.296156, 0.009278, 0.024541, -9.825953, -0.002586, 0.002461, -0.000752, , , 
1731955636.305254, 0.018854, 0.015712, -9.820117, -0.004952, 0.004545, 0.001287, , , 
1731955636.316134, 0.008080, 0.012719, -9.835231, -0.004155, 0.005257, -0.000510, , , 
1731955636.326150, 0.013467, 0.020949, -9.831789, -0.004790, 0.003507, -0.000507, , , 
1731955636.336193, 0.010475, 0.025738, -9.825504, -0.004229, 0.003367, 0.000113, , , 
1731955636.346146, 0.008230, 0.013617, -9.832388, -0.003312, 0.004106, -0.000812, , , 
1731955636.356143, 0.007033, 0.009278, -9.829844, -0.004175, 0.004049, -0.001565, , , 
1731955636.366132, 0.008080, 0.016610, -9.826402, -0.004222, 0.004789, -0.002061, , , 
1731955636.376143, 0.013467, 0.017657, -9.819968, -0.003044, 0.004937, -0.000966, , , 
1731955636.386180, 0.003442, 0.016759, -9.841216, -0.003321, 0.005191, 0.000040, , , 
1731955636.396209, 0.008529, 0.027234, -9.817274, -0.003518, 0.004578, -0.002419, , , 
1731955636.406134, -0.004190, 0.019902, -9.820566, -0.002948, 0.003840, -0.000468, , , 
1731955636.416132, 0.007632, 0.015862, -9.819968, -0.002710, 0.004673, -0.000582, , , 
1731955636.426139, 0.011522, 0.017508, -9.826552, -0.003523, 0.003151, -0.001114, , , 
1731955636.436190, 0.006883, 0.012420, -9.830592, -0.004576, 0.005769, -0.001003, , , 
1731955636.446215, 0.022146, 0.017508, -9.829993, -0.003047, 0.003749, -0.001299, , , 
1731955636.456156, -0.007632, 0.011821, -9.813234, -0.003912, 0.004610, -0.001738, , , 
1731955636.466153, 0.011372, 0.008529, -9.824307, -0.003961, 0.004732, -0.002057, , , 
1731955636.476158, -0.000150, 0.011672, -9.814132, -0.004842, 0.003462, -0.000307, , , 
1731955636.486255, 0.006734, 0.015562, -9.811738, -0.005375, 0.004615, -0.000241, , , 
1731955636.496218, 0.009128, 0.023493, -9.825804, -0.003479, 0.003726, -0.001071, , , 
1731955636.506137, 0.011223, 0.015562, -9.820117, -0.003332, 0.003091, -0.001386, , , 
1731955636.516135, 0.010475, 0.020500, -9.811139, -0.004600, 0.002755, -0.001645, , , 
1731955636.526139, 0.003591, 0.028282, -9.824307, -0.004431, 0.005289, -0.001731, , , 
1731955636.536238, 0.005986, 0.023792, -9.823409, -0.002205, 0.004274, -0.001049, , , 
1731955636.546139, 0.006434, 0.029928, -9.812486, -0.004170, 0.005844, -0.000788, , , 
1731955636.556135, 0.010026, 0.023792, -9.818920, -0.003549, 0.004441, 0.000193, , , 
1731955636.566135, 0.006584, 0.010475, -9.834632, -0.005098, 0.004814, -0.003038, , , 
1731955636.576210, 0.023643, 0.023493, -9.810092, -0.003441, 0.003741, -0.000681, , , 
1731955636.586189, 0.001945, 0.008380, -9.822063, -0.003932, 0.003642, -0.000675, , , 
1731955636.596150, 0.009577, 0.024241, -9.812187, -0.002949, 0.003250, -0.000476, , , 
1731955636.606132, 0.011223, 0.017358, -9.817574, -0.003180, 0.004303, -0.001176, , , 
1731955636.616128, 0.015113, 0.018705, -9.819070, -0.003780, 0.003621, -0.000938, , , 
1731955636.626205, 0.018854, 0.019154, -9.819070, -0.002232, 0.003380, -0.000753, , , 
1731955636.636075, -0.004190, 0.018854, -9.817574, -0.004001, 0.003190, -0.000994, , , 
1731955636.646146, -0.001945, 0.027384, -9.824307, -0.003423, 0.003037, -0.001065, , , 
1731955636.656140, 0.005237, 0.012121, -9.830143, -0.002798, 0.005113, -0.001148, , , 
1731955636.665449, 0.013916, 0.004938, -9.815628, -0.003645, 0.005431, -0.000176, , , 
1731955636.676127, 0.008679, 0.008829, -9.825804, -0.004300, 0.004203, -0.000471, , , 
1731955636.686161, 0.014964, 0.032771, -9.824008, -0.003077, 0.004045, 0.000006, , , 
1731955636.696131, 0.008679, 0.023194, -9.826851, -0.003322, 0.002218, -0.000805, , , 
1731955636.706206, -0.008978, 0.022895, -9.809792, -0.004019, 0.004104, -0.001862, , , 
1731955636.716131, 0.004489, 0.015113, -9.813384, -0.002663, 0.004066, -0.002894, , , 
1731955636.726220, 0.009577, 0.021847, -9.816227, -0.003098, 0.002890, 0.000211, , , 
1731955636.736137, 0.022595, 0.021997, -9.819668, -0.003413, 0.003685, -0.001468, , , 
1731955636.746140, 0.022895, 0.015413, -9.818172, -0.001760, 0.004894, -0.000937, , , 
1731955636.756205, 0.003142, 0.021398, -9.825504, -0.004126, 0.003602, -0.001270, , , 
1731955636.765218, 0.001347, 0.019453, -9.823709, -0.005430, 0.002227, -0.000207, , , 
1731955636.776160, 0.001047, 0.013916, -9.808595, -0.002455, 0.003837, -0.000868, , , 
1731955636.785684, 0.009726, 0.020949, -9.827749, -0.004033, 0.004136, -0.002607, , , 
1731955636.796141, 0.014365, 0.020351, -9.817723, -0.004045, 0.003221, -0.000870, , , 
1731955636.806164, 0.022745, 0.020351, -9.819519, -0.005230, 0.003403, -0.000809, , , 
1731955636.816149, 0.010774, 0.010325, -9.826851, -0.002917, 0.004698, -0.000485, , , 
1731955636.825582, -0.002993, 0.012719, -9.820267, -0.003696, 0.003307, 0.000101, , , 
1731955636.835601, 0.007183, 0.014515, -9.819070, -0.004475, 0.005319, -0.001317, , , 
1731955636.846117, 0.007931, 0.015263, -9.831939, -0.004502, 0.005364, -0.001793, , , 
1731955636.855548, 0.011223, 0.024241, -9.827450, -0.003543, 0.002872, -0.000890, , , 
1731955636.866190, 0.003591, 0.019752, -9.818471, -0.004382, 0.004704, -0.000838, , , 
1731955636.876136, 0.004190, 0.012719, -9.825355, -0.005686, 0.003103, -0.000954, , , 
1731955636.885632, 0.020650, 0.024092, -9.820566, -0.002809, 0.004855, -0.001266, , , 
1731955636.896186, 0.011971, 0.014964, -9.823858, -0.003976, 0.004527, -0.000382, , , 
1731955636.906140, 0.003442, 0.021398, -9.833734, -0.002875, 0.004338, 0.001251, , , 
1731955636.916124, 0.014664, 0.016909, -9.827899, -0.003872, 0.003270, -0.000100, , , 
1731955636.926136, 0.016310, 0.010774, -9.825205, -0.004908, 0.004157, -0.000419, , , 
1731955636.935695, 0.014964, 0.023343, -9.821165, -0.002529, 0.003176, -0.001243, , , 
1731955636.946134, 0.005836, 0.019154, -9.822811, -0.004307, 0.002599, -0.001774, , , 
1731955636.956111, 0.014664, 0.016011, -9.815479, -0.002878, 0.004278, -0.002365, , , 
1731955636.966125, 0.015712, 0.024690, -9.825205, -0.001781, 0.003570, -0.001208, , , 
1731955636.976139, 0.012869, 0.021548, -9.820417, -0.003783, 0.004343, -0.001314, , , 
1731955636.985565, 0.006135, 0.030526, -9.816077, -0.002862, 0.004283, -0.000724, , , 
1731955636.996129, 0.010325, 0.028282, -9.828796, -0.003692, 0.003909, -0.001240, , , 
1731955637.006029, 0.014066, 0.020351, -9.818621, -0.005079, 0.003275, -0.000973, , , 
1731955637.016129, 0.012420, 0.015113, -9.817424, -0.003157, 0.004015, -0.000250, , , 
1731955637.026126, 0.003442, 0.024840, -9.807249, -0.002122, 0.004789, -0.002970, , , 
1731955637.035631, 0.008829, 0.020949, -9.820716, -0.004339, 0.003623, -0.000924, , , 
1731955637.046127, 0.010475, 0.015862, -9.812636, -0.003698, 0.003552, -0.002497, , , 
1731955637.055938, 0.012869, 0.014814, -9.828048, -0.004231, 0.003538, -0.001663, , , 
1731955637.066125, 0.004938, 0.024989, -9.829993, -0.002325, 0.003580, -0.001121, , , 
1731955637.076131, 0.017059, 0.024092, -9.827450, -0.002939, 0.003923, -0.001096, , , 
1731955637.085677, 0.015113, 0.010475, -9.816975, -0.004105, 0.005092, -0.000757, , , 
1731955637.096127, 0.021249, 0.020201, -9.825953, -0.004406, 0.004128, -0.002155, , , 
1731955637.106150, 0.008829, 0.019902, -9.821015, -0.002676, 0.004384, -0.002064, , , 
1731955637.116134, -0.001197, 0.015862, -9.823110, -0.003463, 0.004663, -0.000736, , , 
1731955637.126128, 0.015562, 0.015562, -9.826402, -0.003111, 0.002746, -0.000677, , , 
1731955637.135707, 0.014664, 0.007183, -9.830592, -0.004440, 0.004173, -0.001209, , , 
1731955637.146206, 0.004938, 0.033220, -9.827749, -0.002422, 0.004573, -0.000803, , , 
1731955637.155763, 0.005088, 0.015712, -9.825804, -0.005759, 0.004406, -0.001304, , , 
1731955637.166199, 0.007931, 0.015562, -9.824158, -0.003397, 0.005523, 0.000578, , , 
1731955637.176141, 0.019303, 0.022296, -9.814282, -0.003251, 0.004295, 0.000097, , , 
1731955637.186125, 0.011372, 0.029778, -9.809643, -0.002515, 0.004225, -0.001162, , , 
1731955637.196177, 0.008529, 0.012420, -9.816526, -0.003581, 0.002339, -0.001378, , , 
1731955637.205671, 0.003591, 0.020650, -9.817424, -0.002657, 0.004787, -0.000333, , , 
1731955637.216137, 0.003292, 0.013467, -9.824307, -0.004300, 0.004033, -0.000555, , , 
1731955637.226215, 0.010325, 0.015712, -9.818172, -0.004640, 0.005531, -0.001209, , , 
1731955637.235630, 0.016460, 0.006285, -9.831639, -0.003291, 0.003302, -0.000259, , , 
1731955637.246234, 0.007781, 0.008230, -9.820117, -0.004219, 0.004087, -0.000395, , , 
1731955637.255617, 0.013916, 0.016759, -9.828647, -0.003732, 0.003735, -0.001483, , , 
1731955637.265408, 0.008679, 0.018705, -9.830592, -0.003308, 0.004054, -0.000741, , , 
1731955637.276141, 0.007781, 0.009577, -9.828647, -0.004217, 0.004522, -0.000767, , , 
1731955637.285616, 0.007482, 0.019603, -9.825355, -0.003377, 0.003694, -0.000515, , , 
1731955637.296172, 0.007931, 0.024989, -9.824457, -0.004152, 0.005151, 0.000668, , , 
1731955637.305576, 0.004938, 0.019004, -9.827450, -0.002761, 0.004277, -0.001322, , , 
1731955637.316121, 0.005686, 0.023493, -9.830592, -0.004507, 0.004633, -0.000839, , , 
1731955637.326156, 0.012420, 0.021249, -9.821614, -0.002235, 0.003302, -0.001366, , , 
1731955637.335615, 0.005237, 0.012420, -9.816376, -0.002827, 0.004810, -0.000637, , , 
1731955637.346163, 0.020800, 0.017059, -9.825654, -0.003312, 0.003816, -0.001373, , , 
1731955637.355422, 0.015562, 0.012719, -9.817125, -0.004155, 0.004051, -0.000620, , , 
1731955637.366130, 0.018854, 0.019902, -9.819818, -0.003325, 0.004541, -0.001393, , , 
1731955637.376139, 0.011672, 0.020051, -9.813384, -0.002274, 0.003178, -0.001373, , , 
1731955637.385629, 0.010026, 0.017807, -9.827450, -0.001884, 0.004499, -0.000803, , , 
1731955637.396197, 0.015712, 0.023643, -9.822362, -0.002718, 0.004815, -0.000902, , , 
1731955637.405329, 0.020800, 0.022745, -9.823110, -0.003745, 0.002791, -0.001628, , , 
1731955637.416120, 0.013916, 0.020650, -9.820716, -0.002820, 0.004106, -0.000454, , , 
1731955637.426140, 0.007332, 0.021398, -9.835380, -0.003438, 0.003895, -0.001972, , , 
1731955637.435653, 0.008380, 0.013318, -9.830742, -0.002626, 0.006316, 0.000744, , , 
1731955637.446195, 0.009876, 0.014066, -9.827749, -0.003238, 0.003511, -0.000218, , , 
1731955637.455249, 0.021099, 0.020650, -9.813683, -0.003040, 0.004960, -0.001193, , , 
1731955637.466119, 0.002993, 0.020351, -9.831041, -0.003735, 0.004472, -0.000697, , , 
1731955637.476119, 0.005088, 0.014515, -9.821913, -0.003332, 0.005474, -0.000789, , , 
1731955637.485620, 0.010026, 0.023343, -9.820267, -0.002454, 0.004332, 0.000033, , , 
1731955637.496189, 0.007332, 0.019154, -9.830592, -0.003496, 0.004716, -0.000221, , , 
1731955637.505203, 0.014515, 0.022595, -9.804405, -0.003821, 0.003247, 0.000297, , , 
1731955637.516148, 0.010325, 0.021997, -9.823110, -0.002941, 0.003943, -0.000842, , , 
1731955637.526121, -0.002993, 0.022745, -9.829993, -0.003083, 0.005440, -0.002388, , , 
1731955637.535619, 0.016460, 0.017807, -9.816376, -0.003661, 0.003122, -0.001278, , , 
1731955637.546203, 0.007632, 0.016310, -9.831340, -0.003041, 0.003467, -0.001824, , , 
1731955637.556136, 0.012420, 0.017807, -9.834034, -0.002345, 0.004136, -0.000309, , , 
1731955637.566117, 0.006584, 0.018256, -9.824158, -0.002434, 0.003104, 0.000117, , , 
1731955637.576134, 0.014964, 0.013916, -9.824158, -0.002861, 0.002353, -0.000475, , , 
1731955637.585613, 0.022895, 0.022595, -9.831639, -0.003150, 0.003162, -0.001206, , , 
1731955637.596163, 0.004190, 0.017657, -9.824906, -0.004868, 0.004763, -0.003900, , , 
1731955637.606205, 0.006883, 0.017657, -9.835231, -0.003928, 0.003485, -0.001022, , , 
1731955637.616122, 0.017807, 0.010325, -9.813234, -0.003328, 0.003527, -0.001303, , , 
1731955637.626117, 0.002693, 0.023643, -9.816376, -0.003616, 0.004563, -0.001479, , , 
1731955637.635630, 0.010924, 0.023643, -9.832986, -0.003114, 0.003482, 0.000220, , , 
1731955637.646194, 0.011223, 0.009577, -9.819519, -0.001493, 0.004152, -0.000854, , , 
1731955637.656122, 0.003741, 0.023942, -9.819220, -0.004117, 0.002644, -0.000832, , , 
1731955637.666124, 0.007632, 0.026635, -9.820417, -0.004440, 0.004258, -0.000493, , , 
1731955637.676123, 0.016909, 0.016610, -9.824008, -0.002419, 0.005098, 0.000848, , , 
1731955637.685990, 0.015712, 0.027084, -9.816975, -0.004947, 0.004601, -0.001449, , , 
1731955637.696124, 0.009128, 0.017208, -9.829245, -0.004196, 0.004432, -0.000348, , , 
1731955637.706084, 0.007632, 0.011971, -9.828198, -0.003606, 0.004308, 0.000137, , , 
1731955637.716158, 0.002693, 0.027833, -9.819968, -0.003548, 0.004431, -0.001104, , , 
1731955637.725276, 0.014664, 0.012719, -9.817274, -0.003445, 0.003688, -0.000865, , , 
1731955637.736149, 0.004040, 0.028431, -9.835829, -0.001964, 0.004429, -0.000698, , , 
1731955637.746127, 0.015562, 0.024241, -9.822063, -0.002749, 0.004501, -0.000501, , , 
1731955637.756139, 0.001796, 0.021398, -9.834034, -0.004360, 0.003624, -0.000337, , , 
1731955637.766118, 0.005237, 0.018405, -9.825804, -0.003783, 0.002998, -0.002013, , , 
1731955637.776139, -0.001197, 0.023194, -9.820117, -0.003576, 0.003587, 0.000136, , , 
1731955637.786077, 0.002843, 0.017508, -9.834034, -0.002567, 0.004586, -0.001948, , , 
1731955637.796131, 0.007033, 0.017657, -9.814431, -0.003920, 0.003683, -0.001195, , , 
1731955637.805670, 0.014216, 0.020500, -9.821015, -0.002728, 0.003513, -0.000430, , , 
1731955637.816123, 0.011073, 0.012270, -9.834034, -0.003638, 0.003701, -0.000475, , , 
1731955637.826123, 0.016759, 0.007332, -9.828796, -0.003422, 0.004737, -0.000241, , , 
1731955637.835978, 0.017358, 0.017208, -9.824307, -0.004097, 0.002958, 0.000268, , , 
1731955637.846202, 0.024840, 0.013617, -9.806500, -0.005661, 0.004786, -0.001809, , , 
1731955637.856126, 0.014814, 0.009726, -9.826851, -0.003005, 0.002970, -0.001322, , , 
1731955637.866115, 0.010325, 0.023643, -9.818471, -0.002801, 0.005203, -0.001447, , , 
1731955637.876126, 0.002095, 0.024690, -9.826253, -0.004562, 0.003324, -0.000406, , , 
1731955637.885903, 0.008529, 0.027234, -9.828796, -0.002680, 0.002777, -0.001736, , , 
1731955637.896186, 0.005686, 0.018705, -9.806949, -0.004207, 0.002984, -0.001274, , , 
1731955637.906127, 0.011522, 0.000000, -9.818322, -0.004598, 0.003555, -0.000410, , , 
1731955637.916189, 0.017957, 0.020201, -9.818322, -0.003159, 0.004672, 0.000294, , , 
1731955637.926122, 0.021997, 0.021697, -9.815778, -0.004594, 0.003723, -0.000791, , , 
1731955637.935808, 0.003741, 0.017358, -9.824457, -0.003024, 0.004208, -0.000348, , , 
1731955637.945585, 0.015263, 0.018106, -9.815479, -0.004607, 0.004387, -0.000747, , , 
1731955637.956126, 0.010175, 0.005836, -9.822063, -0.003423, 0.003612, -0.001524, , , 
1731955637.966117, 0.005537, 0.013916, -9.817873, -0.003812, 0.004963, 0.000667, , , 
1731955637.976118, 0.010475, 0.023942, -9.835680, -0.004643, 0.002963, -0.001418, , , 
1731955637.985709, 0.023493, 0.023493, -9.836129, -0.003822, 0.003409, -0.001410, , , 
1731955637.996121, 0.006883, 0.016460, -9.828497, -0.003019, 0.004424, -0.000259, , , 
1731955638.006123, -0.004938, 0.029928, -9.820117, -0.002558, 0.003815, -0.000265, , , 
1731955638.016117, 0.004788, 0.021697, -9.830742, -0.003822, 0.003633, -0.000726, , , 
1731955638.026117, 0.012869, 0.010475, -9.835380, -0.004807, 0.003815, -0.000842, , , 
1731955638.035660, 0.017807, 0.021847, -9.824607, -0.004300, 0.003918, -0.001027, , , 
1731955638.046086, 0.014216, 0.004190, -9.813384, -0.003393, 0.003947, -0.000903, , , 
1731955638.056118, 0.006734, 0.019303, -9.821015, -0.003141, 0.003910, -0.000965, , , 
1731955638.066112, 0.005537, 0.028730, -9.824457, -0.004023, 0.003775, -0.000666, , , 
1731955638.076116, 0.004788, 0.005836, -9.817574, -0.003315, 0.003815, 0.000080, , , 
1731955638.085590, 0.014365, 0.005387, -9.828198, -0.003330, 0.003310, -0.001516, , , 
1731955638.096127, 0.006734, 0.010026, -9.817274, -0.004414, 0.005324, -0.000713, , , 
1731955638.106121, 0.007931, 0.017358, -9.828347, -0.004234, 0.003592, -0.000890, , , 
1731955638.115986, 0.008230, 0.007183, -9.831639, -0.002900, 0.003004, -0.001761, , , 
1731955638.126116, 0.008978, 0.022595, -9.814431, -0.003932, 0.004720, -0.002346, , , 
1731955638.135460, 0.011971, 0.007183, -9.836578, -0.002849, 0.004133, -0.001024, , , 
1731955638.146115, 0.006434, 0.017657, -9.826253, -0.004029, 0.004670, -0.001144, , , 
1731955638.156125, 0.015113, 0.024690, -9.818022, -0.003627, 0.003929, -0.002147, , , 
1731955638.166125, 0.010475, 0.016011, -9.834483, -0.003941, 0.002854, -0.001243, , , 
1731955638.176115, 0.007781, 0.013617, -9.824158, -0.003830, 0.003664, -0.000949, , , 
1731955638.185393, 0.014964, 0.017508, -9.816526, -0.004800, 0.004131, -0.000154, , , 
1731955638.196117, 0.013916, 0.020051, -9.833585, -0.002955, 0.003661, -0.000774, , , 
1731955638.206191, 0.012570, 0.011672, -9.839870, -0.003447, 0.003834, -0.000803, , , 
1731955638.216117, 0.008978, 0.027234, -9.818471, -0.003119, 0.003637, -0.000429, , , 
1731955638.226115, 0.006135, 0.014515, -9.821614, -0.004019, 0.004930, 0.000035, , , 
1731955638.235300, 0.019752, 0.014365, -9.835380, -0.003466, 0.004426, -0.002432, , , 
1731955638.246115, -0.000299, 0.021249, -9.828347, -0.002431, 0.002712, -0.000715, , , 
1731955638.256160, 0.010026, 0.017657, -9.818172, -0.003300, 0.004602, -0.000531, , , 
1731955638.266113, 0.010924, 0.017508, -9.828647, -0.004642, 0.003560, -0.000133, , , 
1731955638.276134, 0.014964, 0.022446, -9.834782, -0.002790, 0.003386, -0.001486, , , 
1731955638.285225, 0.002095, 0.018405, -9.821913, -0.004558, 0.003790, -0.000429, , , 
1731955638.296120, 0.006734, 0.013318, -9.825205, -0.003672, 0.003944, -0.000557, , , 
1731955638.306119, 0.001796, 0.024391, -9.817873, -0.003559, 0.003274, -0.001808, , , 
1731955638.316114, 0.006285, 0.032471, -9.827749, -0.003667, 0.003043, -0.000457, , , 
1731955638.326114, 0.007033, 0.008230, -9.832537, -0.003695, 0.002719, -0.001125, , , 
1731955638.336115, 0.000449, 0.016161, -9.825355, -0.004242, 0.004395, 0.000433, , , 
1731955638.346123, 0.009128, 0.016909, -9.818322, -0.003698, 0.004095, -0.000251, , , 
1731955638.356177, 0.002095, 0.021548, -9.821464, -0.004401, 0.003089, -0.000535, , , 
1731955638.366117, 0.008080, 0.017957, -9.821464, -0.004893, 0.004038, -0.000581, , , 
1731955638.376127, 0.015862, 0.023493, -9.816825, -0.003690, 0.002079, -0.000898, , , 
1731955638.386204, 0.011073, 0.021847, -9.817723, -0.003892, 0.004449, -0.002088, , , 
1731955638.396122, 0.011821, 0.019902, -9.827749, -0.003303, 0.004154, -0.000487, , , 
1731955638.406122, 0.004938, 0.015712, -9.817574, -0.003826, 0.003274, -0.001172, , , 
1731955638.416119, 0.009427, 0.021249, -9.812037, -0.002256, 0.003635, -0.001441, , , 
1731955638.426114, 0.006285, 0.013018, -9.831041, -0.003712, 0.003838, -0.000657, , , 
1731955638.436116, 0.014216, 0.023343, -9.826851, -0.004181, 0.003815, -0.001166, , , 
1731955638.446112, 0.009427, 0.009577, -9.817424, -0.004036, 0.003284, -0.001712, , , 
1731955638.456167, 0.003891, 0.032771, -9.822063, -0.003964, 0.003728, -0.001374, , , 
1731955638.466112, 0.017807, 0.013018, -9.823709, -0.003933, 0.005341, -0.000301, , , 
1731955638.476143, 0.008380, 0.002693, -9.830143, -0.002226, 0.002772, -0.000593, , , 
1731955638.486120, 0.000748, 0.014515, -9.821614, -0.004234, 0.003944, -0.000662, , , 
1731955638.496174, 0.004190, 0.013767, -9.816376, -0.004956, 0.003724, -0.001345, , , 
1731955638.506130, 0.014664, 0.013318, -9.820866, -0.004829, 0.003130, -0.000439, , , 
1731955638.516119, -0.001347, 0.018405, -9.829245, -0.004281, 0.005191, 0.000394, , , 
1731955638.526114, 0.010475, 0.015263, -9.830742, -0.004962, 0.002466, 0.000374, , , 
1731955638.536123, 0.004190, 0.011971, -9.823559, -0.003031, 0.003492, -0.001050, , , 
1731955638.546115, -0.003891, 0.017657, -9.820716, -0.004633, 0.004817, 0.000262, , , 
1731955638.556150, 0.008829, 0.018256, -9.832388, -0.003677, 0.003317, -0.001279, , , 
1731955638.566113, 0.002095, 0.010624, -9.820716, -0.005388, 0.005080, -0.000710, , , 
1731955638.576112, 0.014664, 0.016759, -9.823409, -0.003773, 0.005190, -0.000603, , , 
1731955638.586116, 0.007632, 0.020500, -9.817125, -0.003074, 0.004171, -0.001448, , , 
1731955638.596114, 0.002993, 0.023493, -9.827450, -0.001676, 0.004685, -0.000799, , , 
1731955638.606113, 0.011073, 0.019752, -9.820866, -0.004305, 0.003656, -0.002465, , , 
1731955638.616112, 0.001496, 0.025887, -9.826701, -0.004204, 0.004472, -0.000773, , , 
1731955638.626111, 0.012869, 0.010624, -9.834333, -0.004769, 0.004031, -0.001741, , , 
1731955638.636114, 0.010325, 0.026187, -9.814581, -0.004718, 0.002329, -0.002393, , , 
1731955638.646112, 0.012420, 0.011672, -9.816077, -0.003931, 0.003820, -0.001968, , , 
1731955638.656123, 0.010026, 0.008829, -9.825804, -0.005079, 0.004789, 0.000092, , , 
1731955638.666113, 0.015562, 0.010325, -9.822512, -0.003351, 0.004764, -0.000810, , , 
1731955638.676112, 0.011971, 0.014964, -9.825055, -0.004527, 0.003750, -0.000360, , , 
1731955638.685584, 0.011372, 0.020201, -9.826851, -0.003545, 0.003362, -0.000882, , , 
1731955638.696110, 0.015263, 0.015113, -9.822512, -0.005173, 0.004110, 0.000663, , , 
1731955638.706116, 0.011821, 0.010624, -9.823858, -0.003965, 0.003041, -0.001678, , , 
1731955638.716113, 0.011971, 0.006883, -9.833734, -0.002935, 0.003350, -0.000478, , , 
1731955638.726115, 0.003891, 0.021697, -9.819519, -0.003522, 0.002983, -0.000985, , , 
1731955638.736119, 0.000299, 0.007033, -9.835231, -0.003251, 0.004058, -0.002820, , , 
1731955638.746117, 0.018405, 0.026486, -9.822212, -0.004077, 0.004240, -0.001187, , , 
1731955638.756118, 0.004639, 0.014066, -9.815778, -0.003521, 0.002222, -0.000539, , , 
1731955638.766113, 0.008529, 0.019453, -9.828347, -0.001267, 0.002121, -0.002088, , , 
1731955638.776118, 0.015113, 0.015862, -9.822212, -0.004110, 0.003316, -0.000247, , , 
1731955638.785637, 0.014515, 0.013168, -9.819668, -0.004168, 0.004679, -0.000988, , , 
1731955638.796117, 0.012719, 0.021697, -9.820716, -0.003985, 0.003261, -0.001175, , , 
1731955638.806122, 0.015413, 0.014216, -9.820417, -0.004661, 0.002924, -0.000091, , , 
1731955638.816111, 0.005237, 0.023044, -9.813533, -0.002832, 0.003596, -0.002168, , , 
1731955638.825782, 0.000748, 0.011372, -9.797372, -0.004183, 0.003962, -0.000431, , , 
1731955638.836115, 0.005986, 0.014814, -9.820267, -0.003571, 0.004059, -0.001670, , , 
1731955638.846116, 0.010774, 0.012121, -9.836727, -0.003568, 0.003213, -0.001312, , , 
1731955638.856118, 0.004788, 0.014515, -9.818172, -0.003359, 0.002904, -0.000638, , , 
1731955638.866108, 0.000599, 0.026935, -9.827300, -0.004979, 0.003833, -0.001413, , , 
1731955638.876117, 0.006434, 0.027833, -9.818022, -0.003068, 0.004666, -0.000722, , , 
1731955638.885623, -0.000898, 0.014664, -9.818172, -0.003586, 0.002555, -0.000916, , , 
1731955638.896116, 0.009278, 0.018106, -9.825953, -0.002120, 0.004805, -0.000722, , , 
1731955638.906126, 0.004639, 0.011522, -9.833734, -0.003521, 0.004000, -0.001958, , , 
1731955638.916109, 0.017508, 0.023343, -9.820417, -0.002848, 0.003473, -0.001408, , , 
1731955638.926106, 0.005537, 0.018106, -9.824906, -0.002665, 0.004012, -0.000445, , , 
1731955638.935681, 0.015263, 0.017508, -9.828198, -0.002665, 0.004012, -0.000445, , , 
1731955638.946108, 0.010026, 0.008380, -9.824307, -0.003669, 0.003972, 0.000752, , , 
1731955638.956134, 0.013767, 0.012121, -9.820117, -0.003038, 0.003517, -0.001892, , , 
1731955638.966124, 0.011672, 0.010175, -9.826253, -0.002884, 0.004178, -0.001752, , , 
1731955638.976115, 0.013318, 0.022446, -9.832238, -0.002759, 0.002496, -0.001624, , , 
1731955638.985971, 0.014814, 0.021099, -9.818471, -0.003991, 0.003911, -0.001105, , , 
1731955638.996111, 0.001047, 0.013617, -9.832388, -0.004537, 0.003070, -0.002558, , , 
1731955639.005987, 0.010774, 0.012869, -9.825804, -0.005017, 0.005001, -0.000842, , , 
1731955639.015173, 0.005537, 0.023343, -9.818471, -0.005017, 0.005001, -0.000842, , , 
1731955639.026109, 0.015562, 0.023643, -9.811588, -0.002961, 0.003535, -0.000873, , , 
1731955639.035970, 0.011372, 0.013767, -9.821464, -0.004642, 0.005268, -0.001441, , , 
1731955639.046109, 0.013916, 0.012420, -9.821314, -0.004681, 0.004136, -0.000553, , , 
1731955639.056094, 0.009577, 0.016161, -9.820566, -0.004400, 0.003944, -0.001283, , , 
1731955639.065158, 0.008829, 0.004190, -9.824008, -0.004400, 0.003944, -0.001283, , , 
1731955639.076107, 0.025438, 0.019004, -9.820267, -0.002870, 0.005091, 0.000661, , , 
1731955639.085824, 0.002993, 0.021548, -9.823858, -0.004357, 0.003535, -0.001253, , , 
1731955639.096106, 0.010026, 0.006285, -9.812785, -0.002555, 0.004419, -0.000849, , , 
1731955639.106120, 0.019453, 0.016610, -9.810391, -0.004808, 0.004119, -0.001136, , , 
1731955639.115157, 0.018256, 0.017358, -9.819968, -0.004808, 0.004119, -0.001136, , , 
1731955639.126143, 0.011971, 0.014664, -9.812187, -0.003956, 0.004072, -0.002753, , , 
1731955639.135747, -0.000299, 0.023493, -9.818621, -0.003436, 0.003670, -0.000102, , , 
1731955639.146109, 0.009128, 0.007781, -9.830442, -0.003699, 0.004237, -0.002411, , , 
1731955639.156107, 0.010325, 0.012570, -9.825654, -0.004367, 0.003596, -0.002370, , , 
1731955639.166109, -0.003442, 0.019453, -9.822362, -0.004666, 0.004746, -0.000336, , , 
1731955639.176106, 0.009726, 0.011821, -9.828796, -0.003046, 0.003949, -0.000900, , , 
1731955639.185687, 0.003741, 0.016460, -9.818022, -0.003046, 0.003949, -0.000900, , , 
1731955639.196104, 0.019453, 0.019154, -9.826253, -0.003605, 0.004685, -0.002170, , , 
1731955639.206108, 0.018555, 0.014515, -9.833585, -0.003998, 0.004606, -0.000729, , , 
1731955639.215157, 0.017208, 0.012570, -9.823260, -0.003998, 0.004606, -0.000729, , , 
1731955639.226064, 0.016909, 0.022296, -9.831340, -0.002972, 0.003747, 0.000371, , , 
1731955639.235544, 0.008829, 0.019752, -9.829694, -0.002972, 0.003747, 0.000371, , , 
1731955639.246105, 0.007781, 0.022296, -9.821913, -0.004407, 0.003126, -0.000301, , , 
1731955639.256106, -0.000599, 0.012719, -9.815179, -0.004009, 0.005218, -0.001221, , , 
1731955639.265153, 0.009876, 0.014066, -9.817723, -0.004009, 0.005218, -0.001221, , , 
1731955639.276171, 0.009876, 0.022146, -9.829694, -0.003892, 0.005263, -0.002168, , , 
1731955639.285461, 0.012270, 0.024541, -9.823559, -0.003892, 0.005263, -0.002168, , , 
1731955639.296128, 0.010026, 0.016909, -9.832388, -0.003951, 0.004455, 0.000063, , , 
1731955639.306115, 0.015562, 0.020949, -9.820866, -0.004647, 0.003858, -0.000669, , , 
1731955639.315155, 0.013916, 0.023792, -9.824158, -0.004647, 0.003858, -0.000669, , , 
1731955639.326103, 0.006883, 0.026635, -9.822811, -0.002170, 0.004196, -0.001220, , , 
1731955639.335365, 0.007931, 0.018705, -9.825953, -0.002170, 0.004196, -0.001220, , , 
1731955639.346107, 0.013617, 0.011223, -9.811588, -0.003883, 0.002767, -0.002747, , , 
1731955639.356101, 0.003292, 0.020351, -9.827001, -0.003271, 0.003530, -0.000735, , , 
1731955639.365259, 0.012719, 0.006285, -9.821763, -0.003271, 0.003530, -0.000735, , , 
1731955639.376127, 0.017059, 0.018106, -9.811289, -0.003175, 0.003389, -0.000757, , , 
1731955639.385319, 0.009876, 0.020650, -9.824756, -0.003175, 0.003389, -0.000757, , , 
1731955639.396106, 0.004639, 0.008080, -9.813982, -0.001629, 0.002593, -0.000343, , , 
1731955639.406110, 0.016161, 0.014814, -9.811588, -0.004196, 0.003266, -0.000469, , , 
1731955639.415198, 0.014964, 0.012869, -9.820267, -0.004196, 0.003266, -0.000469, , , 
1731955639.426167, 0.008679, 0.009128, -9.821763, -0.003453, 0.003588, -0.001394, , , 
1731955639.435211, 0.018854, 0.023942, -9.820716, -0.003453, 0.003588, -0.001394, , , 
1731955639.446104, 0.017059, 0.016759, -9.826253, -0.002886, 0.005120, -0.001544, , , 
1731955639.456190, 0.007632, 0.016310, -9.820267, -0.003299, 0.004388, -0.000268, , , 
1731955639.465168, 0.019303, 0.015413, -9.829245, -0.003299, 0.004388, -0.000268, , , 
1731955639.476103, 0.004639, 0.021548, -9.816077, -0.003402, 0.002968, -0.001090, , , 
1731955639.485200, 0.003741, 0.012869, -9.824457, -0.003402, 0.002968, -0.001090, , , 
1731955639.496102, 0.027833, 0.010774, -9.820866, -0.002824, 0.003989, 0.000038, , , 
1731955639.506110, 0.019004, 0.009278, -9.816376, -0.004860, 0.002336, -0.000318, , , 
1731955639.515178, 0.003741, 0.016460, -9.834782, -0.004860, 0.002336, -0.000318, , , 
1731955639.526098, 0.009577, 0.020351, -9.833734, -0.004206, 0.004453, -0.000814, , , 
1731955639.536135, 0.013467, 0.014515, -9.810092, -0.002921, 0.002985, -0.000296, , , 
1731955639.546098, 0.002993, 0.023643, -9.825055, -0.005227, 0.002554, -0.001384, , , 
1731955639.556131, -0.002843, 0.026635, -9.837326, -0.001866, 0.002411, -0.001687, , , 
1731955639.565150, 0.007482, 0.024840, -9.816526, -0.001866, 0.002411, -0.001687, , , 
1731955639.576116, 0.022296, 0.028431, -9.823858, -0.003716, 0.004161, -0.000557, , , 
1731955639.586111, 0.012270, 0.014216, -9.814730, -0.003694, 0.004871, -0.001169, , , 
1731955639.596130, 0.008978, 0.010026, -9.813683, -0.004656, 0.004903, -0.000558, , , 
1731955639.606126, 0.001646, 0.017807, -9.818322, -0.004656, 0.004903, -0.000558, , , 
1731955639.615175, 0.014814, 0.012869, -9.827450, -0.005900, 0.004812, -0.002364, , , 
1731955639.626103, 0.012869, 0.008080, -9.809343, -0.003601, 0.003646, -0.000867, , , 
1731955639.636166, 0.002095, 0.011073, -9.807099, -0.002399, 0.005425, -0.002355, , , 
1731955639.646102, 0.013018, 0.025139, -9.828796, -0.002399, 0.005425, -0.002355, , , 
1731955639.656105, 0.007632, 0.020201, -9.820716, -0.003546, 0.003590, 0.000066, , , 
1731955639.665149, -0.003292, 0.014964, -9.812636, -0.003209, 0.003499, -0.001296, , , 
1731955639.676164, 0.007632, 0.014814, -9.815030, -0.003620, 0.005218, -0.000946, , , 
1731955639.686109, 0.007482, 0.024241, -9.818920, -0.003620, 0.005218, -0.000946, , , 
1731955639.696105, 0.009278, 0.025738, -9.814282, -0.004652, 0.005200, -0.001013, , , 
1731955639.706189, 0.003442, 0.021099, -9.807398, -0.004182, 0.005081, -0.001107, , , 
1731955639.716043, 0.020949, 0.022146, -9.814282, -0.002691, 0.004118, -0.001084, , , 
1731955639.726114, 0.013168, 0.014515, -9.820417, -0.004909, 0.003394, -0.000855, , , 
1731955639.736103, 0.016310, 0.026187, -9.817873, -0.003906, 0.004532, -0.000080, , , 
1731955639.746104, 0.004639, 0.023643, -9.814880, -0.004164, 0.004200, -0.001236, , , 
1731955639.756111, 0.005537, 0.019752, -9.809493, -0.003433, 0.003777, -0.000398, , , 
1731955639.765975, 0.010475, 0.019902, -9.815928, -0.003522, 0.002966, 0.000205, , , 
1731955639.776112, 0.013168, 0.011821, -9.823110, -0.003519, 0.003990, -0.001172, , , 
1731955639.786131, 0.013767, 0.013318, -9.823409, -0.003939, 0.003876, -0.000215, , , 
1731955639.796127, -0.002095, 0.023792, -9.824307, -0.003799, 0.003554, -0.000676, , , 
1731955639.806122, 0.005237, 0.009726, -9.833285, -0.002191, 0.004968, -0.000974, , , 
1731955639.815894, 0.009876, 0.006285, -9.817574, -0.003670, 0.004947, -0.000702, , , 
1731955639.826169, -0.002394, 0.021548, -9.826701, -0.004906, 0.005022, -0.000191, , , 
1731955639.836137, 0.007033, 0.020949, -9.825953, -0.003776, 0.003589, -0.001504, , , 
1731955639.846111, 0.004788, 0.012420, -9.828946, -0.003255, 0.002209, -0.000349, , , 
1731955639.856110, 0.002693, 0.031574, -9.825504, -0.004313, 0.004432, -0.001664, , , 
1731955639.865797, 0.015862, 0.017807, -9.828198, -0.004070, 0.003487, -0.000302, , , 
1731955639.876101, 0.017957, 0.013318, -9.820267, -0.002557, 0.004746, 0.000693, , , 
1731955639.886117, 0.007332, 0.016011, -9.823110, -0.002225, 0.004603, -0.001374, , , 
1731955639.896102, 0.006285, 0.018106, -9.819070, -0.001212, 0.003842, -0.001108, , , 
1731955639.906123, 0.004938, 0.008529, -9.826253, -0.004938, 0.002566, -0.000642, , , 
1731955639.915703, -0.001197, 0.015413, -9.821165, -0.003621, 0.004604, -0.002464, , , 
1731955639.926126, 0.003591, 0.022745, -9.820267, -0.004263, 0.004912, -0.001274, , , 
1731955639.936110, 0.001197, 0.011672, -9.822960, -0.003694, 0.003931, -0.001331, , , 
1731955639.945158, 0.011672, 0.011821, -9.817274, -0.003041, 0.003302, -0.001076, , , 
1731955639.956101, 0.011223, 0.005237, -9.819668, -0.003982, 0.004472, -0.000572, , , 
1731955639.965620, 0.023643, 0.014964, -9.813533, -0.003944, 0.004752, -0.000011, , , 
1731955639.976156, 0.008380, 0.019453, -9.814581, -0.004109, 0.003572, -0.001154, , , 
1731955639.986182, -0.022895, 0.010026, -9.822362, -0.002980, 0.003040, -0.002307, , , 
1731955639.995277, 0.015862, 0.027084, -9.832837, -0.005584, 0.016685, -0.000969, , , 
1731955640.006107, 0.005088, 0.017358, -9.820117, -0.003662, 0.006137, 0.000589, , , 
1731955640.015541, 0.019154, 0.011073, -9.831939, -0.002737, 0.006096, -0.000593, , , 
1731955640.026127, 0.021099, 0.011223, -9.829545, -0.003461, 0.002112, -0.001363, , , 
1731955640.036103, 0.004040, 0.016909, -9.811289, -0.003167, 0.001870, -0.001625, , , 
1731955640.046155, 0.012270, 0.016011, -9.813234, -0.003662, 0.004475, 0.000181, , , 
1731955640.056171, 0.010026, 0.015562, -9.818322, -0.004256, 0.004871, -0.000937, , , 
1731955640.065467, 0.017657, 0.021099, -9.820267, -0.005132, 0.005276, -0.000352, , , 
1731955640.076103, 0.023942, 0.013467, -9.831041, -0.004392, 0.005924, -0.001703, , , 
1731955640.086186, 0.015862, 0.006135, -9.816526, -0.000111, 0.006085, -0.000344, , , 
1731955640.096136, 0.005088, 0.029479, -9.823110, -0.004349, 0.005029, -0.001142, , , 
1731955640.106109, 0.004040, 0.024541, -9.818920, -0.003464, 0.005834, -0.001259, , , 
1731955640.115385, 0.011672, 0.000000, -9.821015, -0.003652, 0.005404, 0.000249, , , 
1731955640.126106, 0.008829, -0.001945, -9.827450, -0.003579, 0.005100, -0.002298, , , 
1731955640.136118, 0.018256, 0.028282, -9.822811, -0.003145, 0.004196, -0.000924, , , 
1731955640.146147, -0.010774, 0.017508, -9.809044, -0.002040, -0.011247, -0.001052, , , 
1731955640.156182, -0.024690, 0.030077, -9.837176, -0.002697, -0.006223, -0.001302, , , 
1731955640.165270, 0.019303, 0.018405, -9.844658, -0.001852, -0.007358, 0.000540, , , 
1731955640.176100, -0.000150, -0.002843, -9.818920, -0.001803, -0.005631, 0.000008, , , 
1731955640.186096, -0.027533, 0.037260, -9.822811, -0.004200, 0.001297, 0.028154, , , 
1731955640.196151, -0.110283, 0.215927, -9.819968, -0.003290, 0.014519, 0.088981, , , 
1731955640.206096, 0.022595, 0.242862, -9.817723, -0.005274, 0.008266, 0.177209, , , 
1731955640.215201, 0.095469, 0.090381, -9.831789, -0.007895, 0.012604, 0.261641, , , 
1731955640.226101, -0.046687, -0.065392, -9.808296, -0.004987, -0.005412, 0.277168, , , 
1731955640.236099, 0.026037, -0.012719, -9.816376, -0.005536, 0.016988, 0.277773, , , 
1731955640.246144, 0.008529, 0.032621, -9.825504, -0.005421, 0.016293, 0.230292, , , 
1731955640.256108, -0.000299, 0.064344, -9.827599, -0.006601, -0.002245, 0.182083, , , 
1731955640.266097, -0.102801, 0.033968, -9.820866, -0.002463, 0.003635, 0.153424, , , 
1731955640.276097, -0.031424, -0.155025, -9.824906, -0.004581, 0.003307, 0.158747, , , 
1731955640.286111, -0.020500, -0.107739, -9.820117, -0.002364, 0.003126, 0.193339, , , 
1731955640.296109, -0.044742, -0.016909, -9.822362, -0.003665, 0.003546, 0.186433, , , 
1731955640.305754, -0.047285, 0.003891, -9.824307, -0.004487, -0.000294, 0.149854, , , 
1731955640.316066, -0.079757, 0.019603, -9.817574, -0.004888, -0.006429, 0.081077, , , 
1731955640.326129, -0.149787, 0.120159, -9.820566, -0.003645, 0.008363, 0.040969, , , 
1731955640.336094, -0.238522, 0.132429, -9.824607, -0.005557, 0.012893, -0.004433, , , 
1731955640.346143, -0.110283, 0.194679, -9.827150, -0.004369, 0.010232, 0.000817, , , 
1731955640.356098, -0.354641, 0.248249, -9.816825, -0.003438, 0.004055, 0.004798, , , 
1731955640.366096, -0.553809, 0.296432, -9.832088, -0.004934, 0.008834, -0.013440, , , 
1731955640.376105, -0.040552, -0.468515, -9.872341, -0.006207, -0.084398, -0.008884, , , 
1731955640.386100, -0.308104, -0.546776, -9.769839, -0.002891, -0.028763, -0.032444, , , 
1731955640.396144, -0.714819, -0.103250, -9.818022, -0.004437, -0.015273, -0.088870, , , 
1731955640.406153, -0.537049, -0.051326, -9.822212, -0.004389, -0.010212, -0.150322, , , 
1731955640.416098, -0.113126, 0.004788, -9.802610, -0.003928, -0.008157, -0.148474, , , 
1731955640.426120, -0.103699, 0.035015, -9.822661, -0.004420, -0.009727, -0.149976, , , 
1731955640.436092, -0.163105, 0.090381, -9.816825, -0.003073, -0.006656, -0.141102, , , 
1731955640.446180, -0.297480, 0.000000, -9.832837, -0.004563, -0.013020, -0.140383, , , 
1731955640.456105, -0.120458, -0.042198, -9.805303, -0.007860, -0.012725, -0.107401, , , 
1731955640.466124, -0.119710, 0.014964, -9.800515, -0.004418, 0.011988, -0.064230, , , 
1731955640.476183, -0.099210, -0.024690, -9.812785, -0.007277, 0.024805, -0.043249, , , 
1731955640.486104, -0.106991, -0.028132, -9.824906, -0.004846, 0.022898, -0.053311, , , 
1731955640.496155, -0.173729, -0.022595, -9.824158, -0.001047, 0.013268, -0.082214, , , 
1731955640.505877, -0.220416, 0.060753, -9.821614, -0.006232, 0.006662, -0.096096, , , 
1731955640.516124, -0.116119, 0.019603, -9.830143, -0.004077, 0.013584, -0.077782, , , 
1731955640.526100, -0.078410, -0.056713, -9.803059, -0.007124, 0.013050, -0.084692, , , 
1731955640.536175, 0.114024, 0.109684, -9.831041, -0.002869, 0.021086, -0.058574, , , 
1731955640.546119, -0.072275, 0.136619, -9.844059, -0.004021, 0.020452, -0.044650, , , 
1731955640.556118, 0.006584, 0.054917, -9.806949, -0.005829, 0.009640, -0.015600, , , 
1731955640.566122, -0.020949, 0.054019, -9.822960, -0.003831, 0.016643, -0.005310, , , 
1731955640.576166, 0.120309, 0.025438, -9.851092, -0.006015, 0.010350, -0.014729, , , 
1731955640.586134, -0.000599, -0.048632, -9.825953, -0.004802, -0.007344, -0.037461, , , 
1731955640.596095, -0.055815, -0.038906, -9.829694, -0.003210, 0.009159, -0.062823, , , 
1731955640.606096, -0.241814, 0.009278, -9.820267, -0.006355, 0.000568, -0.062198, , , 
1731955640.616023, -0.238672, 0.002693, -9.802161, -0.005538, 0.006890, -0.070869, , , 
1731955640.626108, -0.168043, 0.107141, -9.833585, -0.003806, -0.002237, -0.070019, , , 
1731955640.636154, -0.040253, -0.010026, -9.823409, -0.002677, -0.002577, -0.072425, , , 
1731955640.646133, -0.030227, -0.101005, -9.812785, -0.004219, 0.014310, -0.070611, , , 
1731955640.656098, -0.054019, 0.002394, -9.822960, -0.005483, 0.009274, -0.066700, , , 
1731955640.666099, -0.039504, 0.062249, -9.818322, -0.003209, 0.014001, -0.050365, , , 
1731955640.676106, -0.172532, 0.188094, -9.852140, -0.006038, 0.008509, -0.056277, , , 
1731955640.685109, -0.152481, 0.091728, -9.843012, -0.005462, -0.019683, -0.076112, , , 
1731955640.696092, -0.232238, -0.013916, -9.846304, -0.004781, -0.012115, -0.082985, , , 
1731955640.706099, -0.237924, 0.132429, -9.843610, -0.004764, -0.013657, -0.057212, , , 
1731955640.716110, -0.152181, 0.143652, -9.850943, -0.002884, -0.022808, -0.028950, , , 
1731955640.725755, -0.260519, -0.127342, -9.766996, -0.006702, -0.013718, -0.036243, , , 
1731955640.735496, -0.041450, -0.240617, -9.770737, -0.007292, 0.009523, -0.034589, , , 
1731955640.746091, 0.129287, -0.138415, -9.811139, -0.005185, 0.021212, -0.054064, , , 
1731955640.756100, 0.039504, -0.023493, -9.822661, -0.005604, 0.032092, -0.067077, , , 
1731955640.766168, -0.012719, 0.137966, -9.833734, -0.004168, 0.022561, -0.057461, , , 
1731955640.776109, -0.125546, 0.217723, -9.846603, -0.005568, 0.012180, -0.029734, , , 
1731955640.786100, 0.005686, 0.344915, -9.860370, -0.006508, -0.011665, 0.010788, , , 
1731955640.795922, -0.074520, 0.153827, -9.842413, -0.007325, -0.018057, 0.029552, , , 
1731955640.806111, 0.006584, 0.100706, -9.842563, -0.005500, -0.016560, 0.032860, , , 
1731955640.815570, 0.083797, 0.006434, -9.812785, -0.003268, -0.019561, 0.046906, , , 
1731955640.826100, -0.061052, -0.022296, -9.825055, -0.006530, -0.011433, 0.044110, , , 
1731955640.836098, 0.156820, 0.067187, -9.844508, -0.005610, -0.016692, 0.030070, , , 
1731955640.845947, 0.108038, 0.023194, -9.832088, -0.002782, -0.025894, 0.031928, , , 
1731955640.856129, -0.095319, -0.001945, -9.811438, -0.003510, -0.017403, 0.050622, , , 
1731955640.866098, -0.094122, 0.009726, -9.821464, -0.005751, -0.021619, 0.066337, , , 
1731955640.876099, -0.067487, -0.075717, -9.780015, -0.009258, -0.002691, 0.087206, , , 
1731955640.886116, -0.004040, 0.026037, -9.808745, -0.007042, -0.000455, 0.110925, , , 
1731955640.896097, -0.100856, -0.083797, -9.806500, -0.008683, 0.003833, 0.113152, , , 
1731955640.906096, -0.066589, -0.049979, -9.801712, -0.007719, 0.015195, 0.112425, , , 
1731955640.916128, -0.111181, 0.030526, -9.837326, -0.005403, 0.019555, 0.091908, , , 
1731955640.926097, -0.046388, -0.000898, -9.828647, -0.005458, 0.018047, 0.088547, , , 
1731955640.936100, -0.147243, 0.004339, -9.826402, -0.007328, 0.006793, 0.079013, , , 
1731955640.945957, -0.067038, 0.025887, -9.816825, -0.005403, 0.011019, 0.086002, , , 
1731955640.956097, -0.174178, -0.038158, -9.818471, -0.003854, 0.009833, 0.062979, , , 
1731955640.966025, -0.024092, -0.020201, -9.800365, -0.002290, 0.024992, 0.057937, , , 
1731955640.975343, -0.035763, 0.125546, -9.839121, -0.007220, 0.015771, 0.060956, , , 
1731955640.986105, -0.039804, 0.131980, -9.833734, -0.005092, 0.006487, 0.069638, , , 
1731955640.995921, -0.132729, 0.089184, -9.842862, -0.005379, 0.002051, 0.089063, , , 
1731955641.006099, -0.208146, 0.102053, -9.819818, -0.004079, -0.003468, 0.109301, , , 
1731955641.016001, -0.091877, -0.008230, -9.812336, -0.003319, 0.002291, 0.131324, , , 
1731955641.026096, -0.086042, -0.049081, -9.820267, -0.003912, 0.005277, 0.122877, , , 
1731955641.036172, -0.015263, -0.212036, -9.755624, -0.004285, 0.019387, 0.117677, , , 
1731955641.046107, 0.110133, -0.045639, -9.803059, -0.006922, 0.030361, 0.124114, , , 
1731955641.056095, 0.129736, 0.023643, -9.831041, -0.003503, 0.034404, 0.124080, , , 
1731955641.065899, -0.006734, -0.203956, -9.786599, -0.005784, 0.046685, 0.104538, , , 
1731955641.076167, 0.072574, 0.134375, -9.862614, -0.001323, 0.053577, 0.098527, , , 
1731955641.086162, -0.065990, 0.324414, -9.869199, -0.006404, 0.018190, 0.067343, , , 
1731955641.096091, 0.010924, 0.246303, -9.852439, -0.006057, 0.001096, 0.077157, , , 
1731955641.106109, -0.117466, 0.167594, -9.850045, -0.009887, -0.031008, 0.094847, , , 
1731955641.115860, 0.010475, -0.003142, -9.827599, -0.006315, -0.023847, 0.112716, , , 
1731955641.126165, -0.127491, -0.009876, -9.827749, -0.007817, -0.022359, 0.103468, , , 
1731955641.136112, -0.068235, -0.108936, -9.787047, -0.004974, -0.005530, 0.096024, , , 
1731955641.146101, -0.081403, -0.051326, -9.804854, -0.010627, -0.004759, 0.092608, , , 
1731955641.156119, -0.002693, -0.055964, -9.824607, -0.006577, 0.003553, 0.084385, , , 
1731955641.165707, 0.098013, -0.109984, -9.796026, -0.005244, 0.013347, 0.063836, , , 
1731955641.176107, 0.000599, -0.062549, -9.815778, -0.003553, 0.027896, 0.031293, , , 
1731955641.186156, -0.072574, 0.105943, -9.843012, -0.005835, 0.019240, -0.009760, , , 
1731955641.196098, -0.121655, 0.117615, -9.835530, -0.008557, 0.003779, -0.015650, , , 
1731955641.206097, -0.028132, 0.067187, -9.846154, -0.003787, -0.001060, -0.008118, , , 
1731955641.215611, -0.138564, 0.042796, -9.876531, 0.003186, 0.019399, -0.022928, , , 
1731955641.226162, -0.190040, 0.101005, -9.820866, 0.007510, 0.040649, -0.017182, , , 
1731955641.236151, -0.104746, 0.065841, -9.768043, 0.003349, 0.020367, -0.003800, , , 
1731955641.246089, -0.124199, 0.014066, -9.778817, -0.004202, -0.003190, -0.004331, , , 
1731955641.256160, -0.031274, -0.019004, -9.812636, -0.008225, -0.013544, 0.001063, , , 
1731955641.265503, 0.130783, 0.006285, -9.817574, -0.012723, -0.027220, 0.008796, , , 
1731955641.276091, -0.019154, -0.075118, -9.875184, -0.001277, 0.013079, 0.015923, , , 
1731955641.285696, 0.065990, -0.064195, -9.719411, -0.002909, 0.031282, 0.014947, , , 
1731955641.296095, -0.041450, 0.045789, -9.796325, -0.013685, 0.013867, 0.000086, , , 
1731955641.306172, -0.132729, 0.004938, -9.786898, -0.006464, 0.046401, -0.011917, , , 
1731955641.315441, 0.283114, 0.059705, -9.719411, -0.023633, -0.024699, 0.014254, , , 
1731955641.326103, 0.146794, 0.089483, -10.064326, -0.019143, -0.033671, 0.046905, , , 
1731955641.336186, 0.001197, 0.118962, -9.950901, 0.017531, 0.066305, 0.040495, , , 
1731955641.345153, 0.199916, 0.161758, -9.644293, -0.007106, -0.000532, 0.072931, , , 
1731955641.355564, -0.141557, 0.205901, -9.864709, -0.005533, -0.003209, 0.091161, , , 
1731955641.365324, -0.087388, 0.207547, -9.772233, -0.004593, 0.005353, 0.137131, , , 
1731955641.376099, -0.057461, -0.057910, -9.729736, -0.016365, -0.007249, 0.180796, , , 
1731955641.386112, 0.245705, -0.145148, -9.900473, -0.043630, -0.082973, 0.246463, , , 
1731955641.396109, -0.010924, -0.185251, -9.906907, -0.011178, 0.011584, 0.267991, , , 
1731955641.406117, 0.147692, -0.070030, -9.743653, -0.011703, 0.023301, 0.266244, , , 
1731955641.415316, 0.183456, 0.126294, -9.864260, -0.009244, 0.032904, 0.250153, , , 
1731955641.426093, 0.128090, 0.426018, -9.864410, -0.008717, 0.016217, 0.222602, , , 
1731955641.436076, 0.144101, 0.181361, -9.818621, -0.009120, 0.011569, 0.217692, , , 
1731955641.446100, 0.265307, 0.107739, -9.903615, -0.006866, -0.006475, 0.196781, , , 
1731955641.455632, 0.295385, -0.269048, -9.828198, -0.002564, -0.023840, 0.206938, , , 
1731955641.465168, 0.178368, -0.226102, -9.780164, -0.004370, -0.011028, 0.182065, , , 
1731955641.475586, 0.071227, 0.061501, -9.843610, -0.004861, 0.002420, 0.178957, , , 
1731955641.486085, -0.186149, 0.141557, -9.821614, -0.003669, -0.004663, 0.163727, , , 
1731955641.496172, -0.165200, 0.184802, -9.792883, -0.006079, -0.000239, 0.164585, , , 
1731955641.506145, -0.210989, 0.251840, -9.797821, -0.007126, 0.010680, 0.165889, , , 
1731955641.516093, -0.029928, 0.048782, -9.869049, -0.009988, 0.013634, 0.159575, , , 
1731955641.526106, 0.305859, 0.035165, -9.976339, -0.003445, -0.053157, 0.164286, , , 
1731955641.536088, -0.079308, -0.278924, -9.754726, -0.007564, -0.061112, 0.149016, , , 
1731955641.546095, -0.038008, -0.307805, -9.733028, -0.005706, -0.013272, 0.135298, , , 
1731955641.556160, -0.038158, 0.100556, -9.891644, 0.004322, 0.039161, 0.105596, , , 
1731955641.566117, -0.141856, 0.189292, -9.837475, 0.012194, 0.060470, 0.058033, , , 
1731955641.576097, 0.223110, 0.225205, -9.749488, -0.012102, -0.072525, 0.057334, , , 
1731955641.586112, -0.094122, 0.024840, -10.019285, -0.005324, -0.070373, 0.081736, , , 
1731955641.596163, -0.178368, 0.095469, -9.953893, 0.028550, 0.053656, 0.084167, , , 
1731955641.606158, 0.051326, 0.128988, -9.764303, 0.037392, 0.081351, 0.087624, , , 
1731955641.616039, -0.085892, 0.000000, -9.726893, 0.025800, 0.056301, 0.077530, , , 
1731955641.626090, 0.102502, -0.079458, -9.699958, 0.012807, 0.049388, 0.070614, , , 
1731955641.636135, 0.191536, -0.026635, -9.795128, -0.000889, -0.000005, 0.080978, , , 
1731955641.646090, -0.004489, 0.035015, -9.876980, 0.000087, -0.011388, 0.077698, , , 
1731955641.656154, -0.098611, 0.033070, -9.813982, 0.008289, 0.033703, 0.069065, , , 
1731955641.666093, 0.053121, 0.036063, -9.856030, 0.002651, -0.004975, 0.074858, , , 
1731955641.676081, -0.051625, -0.069581, -9.742156, -0.007230, -0.010594, 0.055727, , , 
1731955641.686084, 0.313790, -0.052074, -9.929203, 0.005898, 0.003569, 0.053481, , , 
1731955641.696046, -0.082899, -0.111031, -9.765649, 0.000307, 0.001724, 0.051890, , , 
1731955641.706108, -0.068833, 0.102053, -9.719262, -0.011813, 0.003754, 0.043558, , , 
1731955641.716176, 0.118064, -0.137816, -9.853786, -0.009002, -0.000945, 0.064200, , , 
1731955641.726091, 0.072874, 0.111330, -9.900772, 0.002069, -0.001479, 0.058374, , , 
1731955641.736102, 0.073023, 0.037709, -9.747842, -0.002027, -0.018727, 0.073665, , , 
1731955641.745922, 0.028282, -0.042796, -9.764901, -0.012623, -0.020370, 0.080314, , , 
1731955641.756158, 0.244209, 0.052373, -9.796175, -0.013630, -0.017427, 0.087916, , , 
1731955641.765707, 0.023194, 0.074520, -9.881469, -0.018897, -0.035933, 0.126119, , , 
1731955641.776085, -0.151284, -0.081403, -9.712528, -0.019543, 0.001781, 0.100095, , , 
1731955641.786104, 0.064195, -0.112228, -9.833585, -0.030069, -0.032353, 0.099894, , , 
1731955641.795840, -0.003292, 0.037858, -10.074651, -0.001778, 0.058333, 0.066608, , , 
1731955641.806110, 0.123750, 0.250344, -9.731532, 0.027172, 0.123534, 0.035654, , , 
1731955641.816136, -0.097414, 0.163105, -9.806949, -0.008462, -0.003498, 0.008445, , , 
1731955641.826083, 0.042048, -0.387711, -9.693075, -0.016774, -0.007820, 0.024420, , , 
1731955641.836090, 0.057012, 0.220715, -9.991004, 0.004833, -0.000847, 0.009086, , , 
1731955641.845748, -0.013617, -0.139612, -9.706094, -0.008133, -0.000641, 0.034047, , , 
1731955641.856088, -0.302418, 0.332644, -9.961824, -0.002927, 0.004495, 0.049730, , , 
1731955641.866094, -0.138415, 0.365565, -10.048764, 0.010240, 0.013615, 0.069474, , , 
1731955641.876111, -0.059556, -0.693870, -9.283816, 0.010958, 0.006139, 0.102204, , , 
1731955641.886127, -0.014964, 0.046687, -9.898677, -0.010668, 0.004112, 0.048874, , , 
1731955641.895662, 0.050727, 0.026785, -9.812187, -0.025385, -0.008839, 0.051292, , , 
1731955641.906160, -0.099509, 0.140210, -9.928754, -0.008730, -0.000692, 0.025844, , , 
1731955641.915471, -0.149189, 0.038307, -9.885808, -0.001843, 0.001493, 0.031688, , , 
1731955641.926083, -0.043993, 0.166247, -9.886556, 0.004796, 0.012051, 0.039552, , , 
1731955641.936104, 0.012121, 0.064494, -9.899276, 0.000453, 0.001729, 0.055766, , , 
1731955641.945562, -0.219369, -0.208296, -9.551518, 0.007939, 0.004116, 0.032379, , , 
1731955641.956146, -0.045639, -0.156820, -9.698761, -0.021740, 0.013613, 0.044425, , , 
1731955641.966079, 0.142006, 0.381726, -10.166828, -0.012190, -0.009391, 0.051496, , , 
1731955641.976085, -0.187047, 0.096217, -9.684695, -0.000190, -0.001901, 0.068849, , , 
1731955641.986000, -0.160412, 0.095618, -9.733028, -0.013489, 0.002679, 0.085988, , , 
1731955641.995499, 0.131980, 0.261567, -10.113557, 0.002385, 0.003174, 0.091158, , , 
1731955642.006134, 0.025887, -0.217423, -9.700258, -0.005145, -0.000623, 0.115658, , , 
1731955642.016080, 0.118513, 0.039205, -9.859173, 0.006836, 0.004509, 0.098044, , , 
1731955642.026100, 0.102951, 0.033070, -9.868151, 0.000043, 0.001933, 0.064581, , , 
1731955642.036082, -0.124050, 0.086640, -9.852589, 0.012990, 0.014877, 0.014876, , , 
1731955642.045428, 0.028581, -0.245555, -9.682451, -0.000166, 0.011920, 0.007597, , , 
1731955642.056156, 0.030975, 0.109535, -10.008661, 0.013015, 0.011565, 0.016833, , , 
1731955642.066114, -0.292392, -0.168193, -9.429863, -0.019945, 0.003387, 0.011113, , , 
1731955642.076089, 0.118064, 0.126743, -9.941623, -0.007849, 0.018274, 0.034862, , , 
1731955642.086167, -0.193033, 0.166247, -9.858724, -0.006757, -0.002924, 0.043747, , , 
1731955642.095328, -0.067935, -0.038457, -9.730484, -0.025586, -0.017358, 0.062523, , , 
1731955642.105737, -0.132429, 0.116867, -9.972149, -0.002955, -0.012281, 0.076726, , , 
1731955642.116081, -0.194679, -0.152331, -9.556157, -0.015004, -0.005132, 0.071999, , , 
1731955642.126079, 0.045789, 0.088286, -9.971850, -0.021717, -0.003060, 0.063481, , , 
1731955642.136128, -0.112527, 0.182408, -9.867702, -0.011608, -0.002279, 0.057277, , , 
1731955642.145259, -0.119560, 0.126144, -9.824307, -0.022331, -0.018750, 0.026709, , , 
1731955642.156156, 0.259023, -0.470461, -9.751733, 0.001387, 0.025263, 0.022294, , , 
1731955642.166083, -0.206350, 0.228347, -9.922170, -0.004599, -0.003411, -0.069294, , , 
1731955642.176076, -0.091578, 0.211588, -10.001329, 0.010253, 0.075909, -0.093140, , , 
1731955642.186081, -0.245855, -0.480636, -9.405621, 0.000633, 0.036455, -0.075492, , , 
1731955642.195161, -0.130484, 0.344915, -9.943119, -0.017632, 0.002226, -0.119487, , , 
1731955642.206086, 0.001347, -0.233884, -9.600000, -0.025132, 0.015064, -0.087023, , , 
1731955642.216087, 0.186000, 0.518345, -10.508301, 0.011840, -0.012336, -0.088677, , , 
1731955642.226087, -0.142455, -0.228197, -9.434651, -0.004598, -0.012040, -0.040049, , , 
1731955642.236082, -0.056563, 0.245406, -9.846154, -0.000937, 0.013648, -0.051762, , , 
1731955642.246152, 0.113874, 0.049979, -9.916634, 0.009265, -0.007500, -0.058521, , , 
1731955642.256130, 0.108188, -0.395193, -9.525331, -0.014332, 0.002028, -0.045892, , , 
1731955642.266076, 0.247201, 0.455198, -10.110863, -0.007352, -0.018618, -0.074306, , , 
1731955642.276079, -0.102502, -0.188244, -9.741857, -0.004028, -0.022477, -0.084520, , , 
1731955642.286088, 0.088885, 0.053271, -9.886108, -0.003699, -0.004548, -0.068396, , , 
1731955642.296160, -0.256180, 0.064195, -9.538499, -0.006527, 0.031340, -0.108013, , , 
1731955642.305367, 0.349553, -0.136619, -9.923517, -0.016985, 0.001841, -0.120774, , , 
1731955642.316159, 0.123750, 0.143502, -10.133010, 0.007106, -0.014444, -0.109264, , , 
1731955642.326093, -0.129736, -0.068684, -9.609727, 0.000939, 0.034665, -0.094898, , , 
1731955642.336098, 0.055366, -0.118513, -9.685294, -0.002300, 0.056059, -0.081415, , , 
1731955642.346080, -0.086341, 0.399832, -10.061184, 0.005643, 0.015997, -0.106391, , , 
1731955642.355273, 0.145897, -0.040701, -9.709086, 0.003716, 0.017268, -0.056419, , , 
1731955642.366185, -0.039055, 0.011372, -9.869947, 0.001331, 0.004294, -0.057765, , , 
1731955642.376100, 0.033369, -0.159214, -9.622745, -0.019561, 0.010595, -0.078899, , , 
1731955642.386161, 0.065990, 0.371101, -10.166828, 0.005585, 0.009229, -0.061335, , , 
1731955642.396126, -0.275184, 0.024690, -9.722404, 0.013386, 0.010027, -0.046195, , , 
1731955642.405216, -0.078111, -0.035763, -9.715820, -0.010418, -0.001115, -0.045539, , , 
1731955642.416109, 0.213832, 0.211588, -10.075249, 0.010101, 0.000608, -0.054199, , , 
1731955642.426088, -0.079607, -0.021398, -9.699210, 0.007897, -0.002147, -0.066748, , , 
1731955642.436105, 0.228646, -0.255880, -9.761609, -0.001561, -0.008258, -0.045280, , , 
1731955642.446080, -0.024391, 0.260070, -9.948806, 0.009205, 0.003729, -0.045709, , , 
1731955642.456079, -0.098312, 0.013018, -9.685144, -0.005392, 0.005746, -0.025128, , , 
1731955642.466088, -0.147992, 0.258873, -9.955240, 0.006219, 0.006401, -0.009642, , , 
1731955642.476161, -0.139163, -0.361375, -9.506776, 0.000101, -0.001325, 0.014018, , , 
1731955642.486090, -0.098761, 0.233584, -9.888202, -0.033845, -0.041665, -0.010604, , , 
1731955642.497707, 0.320823, -0.046837, -9.949105, 0.005042, -0.002462, 0.015194, , , 
1731955642.505999, -0.299574, 0.042946, -9.788394, 0.000768, 0.021204, -0.032887, , , 
1731955642.515856, 0.200514, -0.146944, -9.716568, -0.002763, 0.024383, -0.014494, , , 
1731955642.526088, -0.061800, 0.174328, -9.990405, -0.001370, 0.023227, -0.000212, , , 
1731955642.536167, 0.007632, 0.210241, -9.894338, 0.014497, 0.030643, -0.000640, , , 
1731955642.546108, 0.224456, -0.201711, -9.649979, -0.007761, -0.004057, 0.014451, , , 
1731955642.556139, 0.088286, 0.108787, -9.898827, 0.011528, 0.014601, 0.019266, , , 
1731955642.566081, -0.029179, -0.263063, -9.504382, -0.015312, 0.007401, 0.020340, , , 
1731955642.576138, 0.041899, 0.471957, -10.262446, -0.002764, -0.005850, 0.034030, , , 
1731955642.586090, -0.246453, 0.418686, -9.969156, 0.023577, 0.004062, 0.064936, , , 
1731955642.596153, -0.174627, -0.194080, -9.587281, 0.020326, 0.003512, 0.097221, , , 
1731955642.606145, 0.106392, -0.123152, -9.743653, -0.006018, -0.000123, 0.091374, , , 
1731955642.616099, 0.131980, -0.162656, -9.724499, -0.005464, 0.017769, 0.065270, , , 
1731955642.626084, 0.234332, -0.318130, -9.744999, -0.012392, 0.001154, 0.042685, , , 
1731955642.636140, 0.068384, 0.012270, -9.828946, -0.022849, -0.003427, 0.024280, , , 
1731955642.646085, 0.152331, 0.182259, -9.969306, -0.007999, 0.008347, 0.009643, , , 
1731955642.656083, -0.019004, 0.214281, -9.910498, -0.002141, -0.000275, 0.010190, , , 
1731955642.666158, 0.007332, 0.121356, -9.862016, 0.004574, 0.003712, -0.012753, , , 
1731955642.676069, 0.229843, 0.053421, -9.988609, 0.017308, -0.000085, -0.003364, , , 
1731955642.686066, -0.098611, -0.202310, -9.597157, 0.009809, 0.004512, -0.007253, , , 
1731955642.696164, 0.024092, -0.074520, -9.722254, -0.006865, -0.007193, -0.012993, , , 
1731955642.706149, -0.047884, -0.099808, -9.811588, -0.005808, 0.003801, -0.011004, , , 
1731955642.716104, -0.203208, 0.052672, -9.671078, -0.017661, 0.013124, 0.001366, , , 
1731955642.726083, 0.039953, 0.178368, -9.979182, -0.015402, -0.002058, 0.017407, , , 
1731955642.735890, -0.046388, -0.123750, -9.709236, -0.013763, 0.005884, 0.030283, , , 
1731955642.746084, 0.139612, -0.168342, -9.744700, -0.025401, 0.005508, 0.013575, , , 
1731955642.756150, 0.056264, -0.111181, -9.760113, -0.025688, 0.009530, -0.010543, , , 
1731955642.766066, 0.069581, -0.051176, -9.838074, -0.036717, 0.005592, -0.054598, , , 
1731955642.776067, 0.096965, 0.079458, -9.976788, -0.021150, 0.001884, -0.057747, , , 
1731955642.785599, 0.076764, 0.153977, -9.853636, -0.018474, 0.004316, -0.068839, , , 
1731955642.796157, -0.042497, 0.167893, -9.894038, -0.013005, 0.002174, -0.073961, , , 
1731955642.806151, -0.166247, 0.190040, -9.790938, -0.008040, 0.016846, -0.086155, , , 
1731955642.816086, -0.013018, 0.264709, -9.949105, -0.005012, 0.010515, -0.090902, , , 
1731955642.825112, 0.128539, 0.167594, -9.975890, 0.006323, -0.005114, -0.086358, , , 
1731955642.836159, 0.113126, -0.008230, -9.869199, 0.026579, 0.010424, -0.068273, , , 
1731955642.846095, -0.116568, -0.033070, -9.693075, 0.017136, 0.011758, -0.085050, , , 
1731955642.855593, 0.123152, -0.056413, -9.677064, -0.000089, -0.000564, -0.088294, , , 
1731955642.866085, 0.148740, -0.098611, -9.885359, 0.001570, 0.004300, -0.087382, , , 
1731955642.876083, 0.096816, -0.229843, -9.703400, -0.002533, 0.001741, -0.069603, , , 
1731955642.886166, 0.057610, -0.127641, -9.679009, -0.017351, -0.002354, -0.078529, , , 
1731955642.896078, 0.210241, 0.008080, -9.726893, -0.022760, 0.012621, -0.084671, , , 
1731955642.906079, 0.240767, 0.102651, -9.857826, -0.026459, -0.001393, -0.073310, , , 
1731955642.915228, 0.030676, 0.112827, -9.866206, -0.027616, 0.003884, -0.057540, , , 
1731955642.926115, 0.142754, 0.313341, -9.968857, -0.016926, -0.000122, -0.012427, , , 
1731955642.935636, -0.015712, 0.216675, -9.914239, -0.003073, 0.001777, 0.015728, , , 
1731955642.945943, 0.101305, 0.076764, -9.795278, -0.000668, 0.008317, 0.044907, , , 
1731955642.956076, 0.170437, 0.103699, -9.833435, -0.002398, 0.000892, 0.062441, , , 
1731955642.966081, 0.062100, 0.063446, -9.811588, -0.002897, -0.017320, 0.071493, , , 
1731955642.976164, 0.134973, -0.076465, -9.791537, -0.012305, -0.034697, 0.086376, , , 
1731955642.986096, 0.193033, -0.103250, -9.801862, -0.013085, -0.025820, 0.094827, , , 
1731955642.995862, 0.228796, -0.082001, -9.835380, -0.000437, 0.035436, 0.065938, , , 
1731955643.006075, 0.191985, 0.147692, -9.804705, -0.003088, 0.036264, 0.041827, , , 
1731955643.016100, 0.275632, 0.216226, -9.938331, -0.003849, 0.007939, 0.025583, , , 
1731955643.026081, 0.216825, 0.147992, -9.902119, 0.005570, -0.002459, 0.059148, , , 
1731955643.036119, -0.078111, 0.046687, -9.832837, 0.008267, -0.000005, 0.091914, , , 
1731955643.045786, -0.124349, 0.177321, -9.858275, 0.011857, 0.016595, 0.122306, , , 
1731955643.056071, -0.020051, 0.187047, -9.787197, 0.008334, 0.001277, 0.138929, , , 
1731955643.066213, 0.062549, 0.114323, -9.801413, 0.000564, -0.032912, 0.159208, , , 
1731955643.076150, -0.126294, -0.074370, -9.737517, -0.007719, -0.043819, 0.172170, , , 
1731955643.086111, -0.030376, -0.034716, -9.831789, -0.008530, -0.035933, 0.184056, , , 
1731955643.096079, -0.117316, -0.089932, -9.730036, -0.005858, -0.009806, 0.177764, , , 
1731955643.106071, 0.019303, -0.061501, -9.790788, -0.008837, 0.000284, 0.158121, , , 
1731955643.116074, 0.036212, 0.112378, -9.912145, -0.016578, -0.051323, 0.145036, , , 
1731955643.126080, -0.168043, 0.016610, -9.860819, -0.005171, -0.019145, 0.142544, , , 
1731955643.136105, -0.124050, 0.006584, -9.851841, 0.002123, 0.012858, 0.116664, , , 
1731955643.145651, -0.017358, 0.038008, -9.857826, 0.007335, 0.027513, 0.096082, , , 
1731955643.156075, 0.020351, 0.076914, -9.946561, 0.016886, 0.042727, 0.089421, , , 
1731955643.166083, -0.038457, 0.204106, -9.941773, 0.031397, 0.045477, 0.064111, , , 
1731955643.176077, -0.140809, 0.179565, -9.790190, 0.024804, 0.014722, 0.039921, , , 
1731955643.186137, -0.101454, -0.509965, -9.519495, 0.022404, -0.010152, 0.020237, , , 
1731955643.196083, -0.268450, -0.041300, -9.821015, -0.007729, 0.058079, 0.039728, , , 
1731955643.206068, 0.072425, -0.001197, -9.727791, -0.012841, 0.040935, 0.062496, , , 
1731955643.216072, -0.014664, 0.216675, -9.916484, -0.022086, -0.085379, 0.088251, , , 
1731955643.226084, -0.347758, 0.015862, -9.715221, -0.024635, -0.075092, 0.098548, , , 
1731955643.236078, -0.352995, -0.148889, -9.867852, -0.012989, -0.001900, 0.025200, , , 
1731955643.245408, 0.103100, -0.050428, -9.799168, -0.024678, -0.049214, 0.001249, , , 
1731955643.256074, -0.173580, -0.028730, -9.843311, -0.020549, -0.028265, -0.036054, , , 
1731955643.266075, -0.165649, 0.037260, -9.954791, -0.000369, 0.045729, -0.071862, , , 
1731955643.276070, -0.115520, 0.064793, -9.873388, 0.017031, 0.102916, -0.091529, , , 
1731955643.286075, 0.121955, 0.151583, -9.893589, 0.028383, 0.098874, -0.096017, , , 
1731955643.296104, 0.005537, 0.133776, -9.650428, 0.002090, 0.010146, -0.092643, , , 
1731955643.306083, 0.200664, -0.161010, -9.856779, -0.008917, 0.003398, -0.060473, , , 
1731955643.316102, -0.074669, 0.028132, -9.728390, -0.013361, -0.036743, -0.073535, , , 
1731955643.326071, 0.122104, 0.089184, -9.912294, -0.009016, -0.013547, -0.051150, , , 
1731955643.336072, 0.016460, 0.265008, -9.907057, -0.012916, -0.046614, -0.013287, , , 
1731955643.345441, -0.050578, 0.043993, -9.890746, 0.001658, -0.026640, -0.026457, , , 
1731955643.356149, 0.055815, -0.169689, -9.740211, 0.009614, -0.004376, -0.020428, , , 
1731955643.366077, -0.086491, 0.001347, -9.703699, 0.004251, 0.043263, -0.046726, , , 
1731955643.376072, 0.121057, -0.400430, -9.577854, -0.011638, 0.091014, -0.049946, , , 
1731955643.386076, 0.221015, 0.601842, -10.308385, 0.017477, 0.020946, -0.058765, , , 
1731955643.396072, 0.002394, -0.108188, -9.616311, 0.006045, 0.031367, -0.021997, , , 
1731955643.406066, 0.035015, 0.121356, -9.924116, 0.010084, 0.002881, -0.041395, , , 
1731955643.416071, 0.271143, -0.224307, -9.663746, -0.011199, -0.022118, -0.018915, , , 
1731955643.426070, -0.039953, 0.326659, -9.964667, -0.002077, -0.037378, -0.034227, , , 
1731955643.436090, 0.009577, -0.183456, -9.699061, -0.006786, -0.005900, -0.020080, , , 
1731955643.446070, -0.001047, 0.127342, -9.966762, 0.010726, 0.004764, -0.054934, , , 
1731955643.456070, 0.120009, -0.175824, -9.796325, 0.017059, 0.058727, -0.063148, , , 
1731955643.466069, 0.042198, -0.018106, -9.751733, 0.012154, 0.063948, -0.076353, , , 
1731955643.476131, 0.229843, 0.008380, -9.763255, -0.006764, 0.025094, -0.090706, , , 
1731955643.486075, 0.156521, 0.184952, -10.054001, 0.011849, 0.000553, -0.084862, , , 
1731955643.496080, 0.000299, -0.045041, -9.639804, -0.014375, -0.008568, -0.061805, , , 
1731955643.506126, 0.098162, -0.026486, -9.771784, 0.012833, 0.013693, -0.062304, , , 
1731955643.515639, 0.024391, -0.087688, -9.728390, -0.016441, 0.004453, -0.082294, , , 
1731955643.525313, 0.238672, 0.032621, -9.827150, -0.015926, -0.000652, -0.082823, , , 
1731955643.536066, 0.111330, 0.070629, -9.966164, -0.003732, -0.001787, -0.104629, , , 
1731955643.546086, 0.373645, -0.002095, -9.818771, -0.003477, 0.005524, -0.066337, , , 
1731955643.556077, 0.214880, 0.002843, -9.802161, 0.001456, 0.011819, -0.066572, , , 
1731955643.566065, 0.143502, -0.068684, -9.682600, -0.010874, 0.001119, -0.064074, , , 
1731955643.576145, -0.015263, 0.172532, -9.894787, -0.005496, 0.006754, -0.080562, , , 
1731955643.586069, 0.091429, 0.098611, -9.877728, -0.003242, 0.009615, -0.076035, , , 
1731955643.596078, 0.116119, 0.087538, -9.915586, 0.009503, 0.007925, -0.069631, , , 
1731955643.606068, 0.036512, -0.019453, -9.770288, 0.005102, 0.005556, -0.061446, , , 
1731955643.616069, 0.142904, -0.033668, -9.848399, 0.005758, 0.007845, -0.062432, , , 
1731955643.626054, -0.002245, -0.016460, -9.803059, 0.008407, 0.005976, -0.081688, , , 
1731955643.636105, 0.001197, -0.030227, -9.785102, 0.004372, 0.002427, -0.093607, , , 
1731955643.646092, 0.077961, 0.039205, -9.813982, -0.003675, 0.003102, -0.092848, , , 
1731955643.656068, 0.102651, 0.107589, -9.897630, -0.000274, 0.000982, -0.089050, , , 
1731955643.666068, 0.088585, -0.034716, -9.742306, 0.003625, 0.005723, -0.089266, , , 
1731955643.675924, 0.080505, -0.096816, -9.726594, -0.002632, 0.007705, -0.088468, , , 
1731955643.686078, 0.057610, 0.056413, -9.912444, -0.005478, 0.000132, -0.082873, , , 
1731955643.695863, -0.044891, 0.400580, -10.080487, 0.011792, 0.002778, -0.078365, , , 
1731955643.706071, -0.141258, 0.038158, -9.811139, 0.025167, 0.007218, -0.082760, , , 
1731955643.716076, -0.083049, -0.216825, -9.555259, -0.006498, -0.015491, -0.077219, , , 
1731955643.725886, 0.057910, 0.048931, -9.917083, 0.005436, 0.003635, -0.093769, , , 
1731955643.736148, 0.216226, -0.038607, -9.909451, 0.004561, -0.009484, -0.092359, , , 
1731955643.746076, 0.233584, -0.180313, -9.671527, 0.005534, -0.008603, -0.094727, , , 
1731955643.756068, 0.092326, -0.005387, -9.818322, 0.008487, -0.005934, -0.108281, , , 
1731955643.766097, 0.027833, -0.283563, -9.463381, -0.021438, -0.006188, -0.086764, , , 
1731955643.775791, 0.004190, -0.003292, -9.952846, -0.017223, 0.008706, -0.081905, , , 
1731955643.785500, 0.059406, -0.002693, -9.779117, -0.021196, 0.016323, -0.062177, , , 
1731955643.796074, 0.003591, 0.257227, -9.912593, -0.019163, 0.002315, -0.072340, , , 
1731955643.806066, -0.001646, 0.224007, -9.963769, -0.001080, 0.014513, -0.052339, , , 
1731955643.816073, 0.015712, 0.061950, -9.841366, -0.009495, 0.013589, -0.010555, , , 
1731955643.825717, 0.019004, 0.391153, -10.051158, 0.011106, 0.008589, -0.031841, , , 
1731955643.836068, -0.140510, 0.073023, -9.984868, 0.032652, 0.002552, -0.035373, , , 
1731955643.846075, -0.024541, -0.584335, -9.345766, -0.002802, -0.013980, -0.033412, , , 
1731955643.856072, 0.357185, -0.057760, -9.850793, -0.018245, -0.023861, -0.036554, , , 
1731955643.866073, -0.126893, 0.157419, -9.966613, -0.009921, -0.009691, -0.054812, , , 
1731955643.875628, -0.149787, 0.205752, -9.927258, 0.006470, -0.006987, -0.056125, , , 
1731955643.886072, -0.149488, -0.155473, -9.695320, 0.005374, 0.003364, -0.042553, , , 
1731955643.895368, -0.149488, -0.155473, -9.695320, -0.021132, -0.003596, -0.049297, , , 
1731955643.906025, 0.094571, 0.296582, -10.183737, -0.005026, -0.028374, -0.055254, , , 
1731955643.916097, -0.145298, -0.328903, -9.585486, 0.005291, 0.056901, -0.054800, , , 
1731955643.925588, 0.017358, -0.012270, -9.710882, -0.011345, 0.029224, -0.082629, , , 
1731955643.936077, 0.002544, 0.287454, -10.120290, 0.000933, 0.023903, -0.093244, , , 
1731955643.946068, 0.062997, -0.100856, -9.750087, 0.004619, 0.060261, -0.062211, , , 
1731955643.956089, 0.060454, 0.042198, -9.740660, -0.000144, 0.008430, -0.071678, , , 
1731955643.966069, 0.001496, 0.042796, -9.851841, -0.006263, 0.001290, -0.067136, , , 
1731955643.975478, 0.001496, 0.042796, -9.851841, -0.004583, 0.004978, -0.065963, , , 
1731955643.986079, -0.171934, -0.085892, -9.793931, -0.015971, 0.006135, -0.082657, , , 
1731955643.996074, -0.169240, 0.216975, -10.053253, -0.003899, 0.001729, -0.097893, , , 
1731955644.006068, 0.010924, 0.199317, -9.963321, 0.015090, 0.004722, -0.094532, , , 
1731955644.016154, 0.065541, -0.158765, -9.773430, 0.024957, 0.025667, -0.121791, , , 
1731955644.025365, 0.065541, -0.158765, -9.773430, -0.002465, -0.000921, -0.144162, , , 
1731955644.036069, 0.057162, 0.011223, -9.983222, 0.022882, 0.003284, -0.177814, , , 
1731955644.046065, -0.228347, -0.280271, -9.413851, -0.019802, 0.000576, -0.163768, , , 
1731955644.056080, 0.003591, 0.274286, -10.101436, 0.007366, 0.000366, -0.215339, , , 
1731955644.066128, 0.041150, -0.268599, -9.439589, -0.031894, -0.001066, -0.147148, , , 
1731955644.075298, 0.041150, -0.268599, -9.439589, -0.016322, -0.000593, -0.157680, , , 
1731955644.086120, 0.237625, -0.066289, -9.690980, -0.015419, 0.001017, -0.094003, , , 
1731955644.096107, 0.138564, 0.325013, -10.246136, 0.003136, 0.000635, -0.085129, , , 
1731955644.106067, 0.027833, 0.229095, -9.905710, 0.011914, -0.008613, -0.031143, , , 
1731955644.116119, -0.237176, -0.377236, -9.416545, 0.013202, 0.009614, -0.023346, , , 
1731955644.125285, -0.237176, -0.377236, -9.416545, -0.012539, 0.010111, -0.047468, , , 
1731955644.136092, 0.226551, -0.121057, -9.744850, -0.014283, -0.002126, -0.048228, , , 
1731955644.146070, 0.045490, 0.041749, -9.999383, -0.009758, 0.010091, -0.029717, , , 
1731955644.156080, -0.009278, 0.147992, -9.826701, -0.011882, 0.000493, -0.031290, , , 
1731955644.166083, 0.041599, 0.007332, -9.761908, -0.003610, 0.005875, -0.039569, , , 
1731955644.175140, 0.041599, 0.007332, -9.761908, -0.009742, -0.001267, -0.016136, , , 
1731955644.186077, 0.048333, 0.092326, -9.915437, -0.005416, 0.001260, -0.011418, , , 
1731955644.196087, 0.298527, -0.082450, -9.718813, -0.008504, -0.000327, 0.049064, , , 
1731955644.206067, -0.087089, -0.026635, -9.717466, -0.016257, -0.003675, 0.057937, , , 
1731955644.216126, 0.044143, 0.107739, -9.895385, -0.020048, -0.000593, 0.065182, , , 
1731955644.226081, 0.199916, 0.164302, -9.957485, -0.005098, -0.011297, 0.101810, , , 
1731955644.236137, -0.290896, -0.249895, -9.561993, -0.007449, 0.008286, 0.075236, , , 
1731955644.246064, 0.203806, -0.038008, -9.840917, -0.023621, -0.000053, 0.066391, , , 
1731955644.256074, 0.254683, 0.213982, -10.117896, -0.001108, -0.002970, 0.070041, , , 
1731955644.266063, -0.127192, 0.087538, -9.821913, 0.004847, 0.006849, 0.023095, , , 
1731955644.276066, 0.048333, -0.130035, -9.589526, -0.004359, 0.010154, 0.030566, , , 
1731955644.286139, -0.001347, -0.067487, -9.748441, -0.015493, 0.009545, 0.003426, , , 
1731955644.296067, 0.214580, 0.189740, -10.097097, -0.002002, 0.007954, 0.012650, , , 
1731955644.306074, -0.099359, -0.090381, -9.710283, -0.007060, -0.001138, 0.014976, , , 
1731955644.316106, -0.100407, 0.128239, -9.887903, 0.000420, -0.004079, 0.011710, , , 
1731955644.326114, -0.166696, 0.084545, -9.887305, -0.002799, -0.002242, 0.005329, , , 
1731955644.336062, -0.088137, -0.134225, -9.743802, 0.008085, -0.001999, -0.000265, , , 
1731955644.346063, 0.016909, -0.066589, -9.787047, 0.002469, 0.004806, -0.003331, , , 
1731955644.356062, -0.113575, 0.061052, -9.839720, 0.003563, 0.013754, -0.042573, , , 
1731955644.366063, -0.122703, -0.022446, -9.774478, 0.000742, 0.004805, -0.062613, , , 
1731955644.376062, 0.142605, 0.062399, -9.873089, -0.002759, 0.001311, -0.071986, , , 
1731955644.386064, -0.005088, -0.049979, -9.781661, 0.002801, -0.000779, -0.062674, , , 
1731955644.396095, -0.031723, -0.068684, -9.766098, -0.004540, -0.002079, -0.081167, , , 
1731955644.406057, 0.140210, 0.160561, -9.908104, 0.002965, 0.004901, -0.079746, , , 
1731955644.416081, 0.056563, -0.056862, -9.765500, -0.000854, -0.000274, -0.066135, , , 
1731955644.426088, 0.103848, 0.065841, -9.864111, -0.004387, -0.000737, -0.035555, , , 
1731955644.436056, 0.007332, -0.027833, -9.756671, -0.002594, 0.006334, -0.042659, , , 
1731955644.446075, 0.007332, -0.027833, -9.756671, 0.003639, -0.000823, -0.043684, , , 
1731955644.456064, 0.209642, 0.055366, -9.920973, 0.006613, 0.002056, -0.017749, , , 
1731955644.466142, 0.019303, 0.036212, -9.817873, -0.009345, 0.000448, 0.000065, , , 
1731955644.476092, -0.009278, -0.131980, -9.636811, -0.008038, 0.001263, 0.007414, , , 
1731955644.486063, 0.157419, 0.133776, -9.884611, -0.007371, 0.008658, 0.006572, , , 
1731955644.496137, -0.041450, -0.026037, -9.786748, -0.008727, 0.002254, -0.000435, , , 
1731955644.506106, 0.011223, 0.112827, -9.878476, 0.007123, 0.004111, 0.011529, , , 
1731955644.516070, 0.264410, 0.036811, -9.895684, -0.003401, 0.005999, 0.019633, , , 
1731955644.526085, -0.046388, -0.091578, -9.734525, -0.006266, 0.004033, -0.006971, , , 
1731955644.536123, -0.088436, 0.061052, -9.813384, 0.003181, 0.001939, -0.007374, , , 
1731955644.546059, 0.112527, 0.128988, -9.886407, -0.004015, 0.007958, 0.019288, , , 
1731955644.556116, 0.154875, -0.157868, -9.699210, -0.009254, 0.006901, 0.033110, , , 
1731955644.566097, 0.133926, -0.020949, -9.836727, -0.005345, -0.007785, 0.047782, , , 
1731955644.576132, 0.033818, 0.198270, -9.941174, -0.001161, -0.006662, 0.054874, , , 
1731955644.586067, -0.179266, -0.002693, -9.797372, -0.004069, -0.006723, 0.069388, , , 
1731955644.596123, 0.103250, -0.004938, -9.805453, 0.002154, 0.011736, 0.041759, , , 
1731955644.606112, -0.120309, -0.032172, -9.848848, 0.004832, 0.005565, 0.015825, , , 
1731955644.616124, 0.181810, -0.038756, -9.812037, -0.006297, -0.000431, 0.017346, , , 
1731955644.626100, 0.031274, -0.036811, -9.788843, 0.001135, 0.003872, -0.007066, , , 
1731955644.636149, -0.023343, 0.093524, -9.881618, -0.003842, -0.012134, 0.022142, , , 
1731955644.646066, 0.195576, -0.041150, -9.756072, -0.001686, -0.002524, 0.016235, , , 
1731955644.656141, -0.130035, 0.067786, -9.897630, 0.003202, 0.011657, 0.027994, , , 
1731955644.666056, 0.087388, 0.020800, -9.782708, 0.001948, 0.005834, 0.014913, , , 
1731955644.675120, -0.043545, -0.023792, -9.873688, 0.002273, 0.019517, 0.002771, , , 
1731955644.686086, 0.040402, 0.009427, -9.822362, -0.016488, -0.000417, 0.002463, , , 
1731955644.696102, 0.070330, -0.170437, -9.640702, -0.019165, 0.001554, -0.007923, , , 
1731955644.706186, 0.085892, -0.048931, -9.804854, -0.002168, -0.003621, -0.013933, , , 
1731955644.715991, 0.029628, 0.117166, -9.955988, -0.003288, 0.007160, 0.000847, , , 
1731955644.726131, -0.089334, 0.060154, -9.834782, -0.000411, 0.001231, 0.001443, , , 
1731955644.736066, -0.033369, 0.095918, -9.851092, -0.001502, 0.001430, -0.034031, , , 
1731955644.746089, -0.077213, -0.074071, -9.776573, -0.013373, 0.002438, -0.048926, , , 
1731955644.756162, 0.011223, -0.164901, -9.701754, -0.000519, 0.002227, -0.068063, , , 
1731955644.766067, -0.018106, 0.110133, -9.979332, -0.000603, 0.003863, -0.071846, , , 
1731955644.776115, -0.041899, 0.008679, -9.808895, -0.003699, 0.000501, -0.077149, , , 
1731955644.786084, 0.066439, -0.031424, -9.799617, 0.002655, 0.007701, -0.074956, , , 
1731955644.796103, 0.144400, 0.051924, -9.861268, -0.004557, 0.001946, -0.061210, , , 
1731955644.806183, -0.025289, -0.006135, -9.776274, -0.007286, 0.001734, -0.050184, , , 
1731955644.815487, 0.079458, 0.010325, -9.812785, 0.008648, -0.006702, -0.054662, , , 
1731955644.826019, -0.034267, 0.149787, -9.967959, 0.006638, -0.007568, -0.055591, , , 
1731955644.836059, -0.176423, 0.075118, -9.824906, -0.004348, -0.005925, -0.031350, , , 
1731955644.846070, 0.011372, -0.102202, -9.685294, 0.001063, 0.002177, -0.075975, , , 
1731955644.856175, 0.090531, -0.043395, -9.887454, -0.013047, -0.002145, -0.055423, , , 
1731955644.865411, 0.246154, -0.231938, -9.692626, -0.012241, -0.002487, -0.088714, , , 
1731955644.875923, -0.070479, -0.047734, -9.771336, -0.016728, 0.001147, -0.102595, , , 
1731955644.886072, -0.001796, 0.099210, -9.851841, -0.007642, 0.001171, -0.088759, , , 
1731955644.896143, 0.272939, 0.069282, -9.863512, -0.010247, 0.013722, -0.093631, , , 
1731955644.906158, 0.060304, -0.027683, -9.795726, -0.001776, 0.005184, -0.083018, , , 
1731955644.916079, 0.227449, 0.107889, -9.899874, -0.003421, -0.004981, -0.051301, , , 
1731955644.925856, 0.166397, 0.084994, -9.825355, -0.008224, 0.001109, -0.000995, , , 
1731955644.936065, 0.213234, 0.028282, -9.791088, -0.001777, 0.004923, 0.033410, , , 
1731955644.946086, 0.366911, 0.178967, -9.905411, 0.002577, 0.020401, 0.061316, , , 
1731955644.956157, 0.077213, 0.000299, -9.806351, -0.001655, 0.000394, 0.067555, , , 
1731955644.966056, 0.149338, 0.060603, -9.840767, 0.000216, 0.021105, 0.079759, , , 
1731955644.975747, 0.120309, -0.104297, -9.760262, -0.005559, 0.002839, 0.079982, , , 
1731955644.986086, 0.049380, 0.043395, -9.866355, -0.014755, -0.025335, 0.075023, , , 
1731955644.996064, 0.096067, 0.055516, -9.789442, 0.001475, -0.001112, 0.054180, , , 
1731955645.006098, -0.014066, 0.072425, -9.959430, 0.000482, -0.010078, 0.027720, , , 
1731955645.016065, 0.012420, -0.114473, -9.739912, -0.006665, -0.014643, 0.006825, , , 
1731955645.025668, 0.105794, -0.066289, -9.794679, -0.004856, -0.005311, -0.005922, , , 
1731955645.036134, 0.046238, 0.055665, -9.859173, 0.000161, -0.029843, -0.010655, , , 
1731955645.046090, 0.153678, 0.088885, -9.891046, -0.000023, 0.010950, 0.002622, , , 
1731955645.056126, 0.095768, -0.105794, -9.789741, 0.008073, 0.033450, 0.000360, , , 
1731955645.066083, 0.011821, -0.030825, -9.818172, 0.014410, 0.057461, -0.016850, , , 
1731955645.075663, -0.007482, 0.047435, -9.903316, 0.015733, 0.038881, 0.000030, , , 
1731955645.086105, 0.209493, 0.125995, -9.793332, -0.007237, -0.008651, 0.031573, , , 
1731955645.096129, 0.133477, -0.066738, -9.701006, 0.001344, 0.001694, 0.008999, , , 
1731955645.106088, -0.093374, 0.057910, -9.868151, -0.001198, -0.011472, 0.002355, , , 
1731955645.115638, -0.090980, 0.026635, -9.794679, -0.009813, 0.001388, 0.006201, , , 
1731955645.125501, 0.010924, -0.147243, -9.724798, -0.003968, 0.007663, -0.000037, , , 
1731955645.136059, 0.133926, 0.049829, -9.926959, -0.000160, 0.024607, -0.011489, , , 
1731955645.146082, 0.086191, -0.056563, -9.774029, -0.010059, -0.013571, -0.004471, , , 
1731955645.156068, 0.126444, 0.051625, -9.796325, -0.011432, -0.010504, 0.004133, , , 
1731955645.166135, 0.112677, 0.020650, -9.864709, -0.002531, -0.001563, -0.022252, , , 
1731955645.175373, -0.091578, 0.079308, -9.897630, 0.007865, -0.004905, -0.029468, , , 
1731955645.186068, 0.035763, -0.029329, -9.848100, -0.008833, 0.013389, 0.004786, , , 
1731955645.196060, 0.092177, -0.145897, -9.710134, 0.008520, 0.012407, -0.017549, , , 
1731955645.206131, -0.027982, 0.178069, -9.982025, 0.012703, 0.025296, -0.019538, , , 
1731955645.216060, -0.176123, 0.093823, -9.899425, 0.018010, 0.012437, -0.041020, , , 
1731955645.225312, -0.021099, -0.071676, -9.774628, -0.011212, 0.003986, -0.043875, , , 
1731955645.236130, 0.015263, -0.324863, -9.542091, -0.007006, 0.008384, -0.066190, , , 
1731955645.246147, 0.108038, 0.005387, -9.864859, -0.007975, -0.004552, -0.072714, , , 
1731955645.256122, -0.065242, -0.005537, -9.814431, -0.012168, -0.003792, -0.078243, , , 
1731955645.266129, -0.078560, 0.035314, -9.865009, 0.002160, -0.007445, -0.070205, , , 
1731955645.275240, 0.058059, 0.230891, -9.974094, 0.010413, -0.007273, -0.076971, , , 
1731955645.286079, -0.069581, 0.080655, -9.947010, 0.000444, 0.049525, -0.056048, , , 
1731955645.296064, 0.147992, -0.351798, -9.579650, 0.000237, -0.001207, -0.088990, , , 
1731955645.306130, 0.100257, 0.092925, -9.862764, -0.003496, 0.005280, -0.081059, , , 
1731955645.316077, 0.133926, -0.094571, -9.745149, -0.011061, 0.006717, -0.048472, , , 
1731955645.325136, 0.082001, 0.024391, -9.813683, -0.004571, -0.002869, -0.039527, , , 
1731955645.336053, 0.007482, 0.101454, -9.875483, -0.007992, -0.007169, -0.046804, , , 
1731955645.346113, 0.044442, -0.021847, -9.750835, -0.007890, -0.001346, -0.021362, , , 
1731955645.356059, 0.095618, 0.031274, -9.856629, -0.018808, -0.024564, -0.027494, , , 
1731955645.366054, 0.105943, -0.042497, -9.749788, -0.015895, -0.012639, -0.024677, , , 
1731955645.376051, 0.122703, -0.039804, -9.852589, -0.011530, 0.003973, -0.036280, , , 
1731955645.386054, 0.079906, -0.037260, -9.801413, -0.013832, -0.026872, -0.041642, , , 
1731955645.395114, 0.050578, 0.063895, -9.835979, -0.019813, -0.040822, -0.042489, , , 
1731955645.406090, -0.062549, 0.018405, -9.780314, -0.016800, -0.036487, -0.032607, , , 
1731955645.416086, 0.140510, 0.035763, -9.877279, -0.020065, -0.045574, -0.020113, , , 
1731955645.426082, 0.012869, 0.033369, -9.816077, -0.014761, -0.035006, -0.013716, , , 
1731955645.436051, 0.023493, 0.025289, -9.841366, -0.010757, -0.021485, 0.007406, , , 
1731955645.446126, -0.113126, -0.000599, -9.809792, -0.009486, -0.007618, -0.023140, , , 
1731955645.456052, -0.134075, -0.064643, -9.838224, -0.008694, 0.004000, -0.025577, , , 
1731955645.466053, 0.027234, 0.000898, -9.846154, 0.004625, 0.034867, -0.058486, , , 
1731955645.476063, -0.244957, -0.016161, -9.959280, 0.023123, 0.099198, -0.091558, , , 
1731955645.486073, -0.214730, -0.071976, -9.841216, 0.000954, 0.033351, -0.090334, , , 
1731955645.496130, 0.131531, 0.063446, -9.602844, -0.043598, -0.124496, -0.068702, , , 
1731955645.506074, 0.149189, 0.038457, -9.652673, -0.021258, -0.044704, -0.068326, , , 
1731955645.516053, -0.204854, -0.046986, -10.096049, 0.002450, 0.039389, -0.070180, , , 
1731955645.526051, -0.206051, -0.069432, -9.784354, -0.011077, 0.001307, -0.071969, , , 
1731955645.536061, 0.032471, 0.066289, -9.743503, -0.012204, -0.008336, -0.063601, , , 
1731955645.546102, 0.091429, 0.055516, -9.932495, -0.003092, 0.012193, -0.079847, , , 
1731955645.556116, -0.001945, -0.018405, -9.790340, 0.000012, 0.040938, -0.095276, , , 
1731955645.566134, 0.007632, -0.051026, -9.873388, 0.015024, 0.100017, -0.108734, , , 
1731955645.576055, 0.031873, 0.015712, -9.933842, 0.007820, 0.047874, -0.086719, , , 
1731955645.585963, 0.256928, 0.145897, -9.689783, -0.016493, -0.024424, -0.055150, , , 
1731955645.596127, 0.113874, 0.095319, -9.786000, -0.005487, 0.010850, -0.054002, , , 
1731955645.606073, -0.023942, 0.008529, -9.850643, -0.021470, -0.047923, -0.061443, , , 
1731955645.616110, 0.109984, 0.006285, -9.713426, -0.011463, -0.017446, -0.054179, , , 
1731955645.626062, 0.183905, -0.017657, -9.928156, -0.016627, -0.022172, -0.055135, , , 
1731955645.636139, 0.096666, -0.000299, -9.742007, -0.023122, -0.032265, -0.043093, , , 
1731955645.646070, 0.097713, -0.057162, -9.759813, -0.019921, -0.032304, -0.047014, , , 
1731955645.655964, 0.109086, 0.127342, -9.834483, -0.017969, -0.015295, -0.029449, , , 
1731955645.666071, 0.069282, 0.113725, -9.917531, -0.011547, -0.014676, -0.018280, , , 
1731955645.676088, 0.209792, 0.061950, -9.841516, -0.007679, -0.005230, -0.024915, , , 
1731955645.686125, 0.268300, -0.008230, -9.841067, -0.011202, -0.006189, -0.013587, , , 
1731955645.696062, 0.285808, 0.029778, -9.800515, -0.010055, -0.002851, -0.022991, , , 
1731955645.705862, 0.090231, -0.010175, -9.849746, -0.005254, 0.013760, -0.034176, , , 
1731955645.716061, 0.025738, 0.030526, -9.834034, -0.005214, 0.003219, -0.044108, , , 
1731955645.726069, 0.137667, 0.007332, -9.822362, -0.014418, -0.012822, -0.048920, , , 
1731955645.736050, 0.168791, -0.004339, -9.804256, -0.007988, 0.006748, -0.038343, , , 
1731955645.746051, 0.279972, 0.088585, -9.854983, 0.003622, 0.021467, -0.025509, , , 
1731955645.755792, 0.291195, 0.096217, -9.858425, 0.002383, 0.020073, -0.014508, , , 
1731955645.766052, 0.150535, 0.018106, -9.813384, -0.007749, -0.011072, -0.015235, , , 
1731955645.776061, 0.142455, 0.070030, -9.780912, -0.004057, -0.001371, -0.000434, , , 
1731955645.786048, 0.164003, 0.087987, -9.866655, -0.003243, -0.000464, 0.016032, , , 
1731955645.796053, 0.270395, 0.047285, -9.794978, -0.006308, -0.005450, 0.030889, , , 
1731955645.805690, 0.332644, 0.030825, -9.774478, -0.011824, -0.017192, 0.030080, , , 
1731955645.816057, 0.109535, -0.035165, -9.857377, -0.004872, -0.000657, 0.019569, , , 
1731955645.826195, 0.224157, 0.037110, -9.803807, -0.008840, -0.003786, 0.028245, , , 
1731955645.836052, 0.238073, 0.043395, -9.894787, -0.003649, 0.003668, 0.018481, , , 
1731955645.846055, 0.223259, 0.027084, -9.798270, 0.001745, 0.016431, 0.021336, , , 
1731955645.855601, 0.420931, 0.024690, -9.866655, 0.005037, 0.021543, 0.025980, , , 
1731955645.866054, 0.428562, 0.027084, -9.793183, 0.005020, 0.017077, 0.023945, , , 
1731955645.876058, 0.265158, 0.006285, -9.812935, 0.001633, 0.019422, 0.047823, , , 
1731955645.886063, 0.380528, 0.102352, -9.859622, 0.000888, 0.016723, 0.043288, , , 
1731955645.896178, 0.168642, -0.036661, -9.801862, -0.003111, 0.006480, 0.014870, , , 
1731955645.905541, 0.011372, -0.073921, -9.793632, -0.007106, 0.002463, -0.000086, , , 
1731955645.915351, 0.006584, -0.000748, -9.827150, -0.003034, 0.006310, -0.001676, , , 
1731955645.926057, -0.019453, 0.024541, -9.830592, -0.006018, 0.003711, -0.000376, , , 
1731955645.936060, -0.030077, 0.017059, -9.821464, -0.006845, 0.003343, -0.001492, , , 
1731955645.946079, -0.007183, 0.010475, -9.835979, -0.002395, 0.010739, 0.000237, , , 
1731955645.955427, 0.010026, -0.005537, -9.805154, -0.001333, 0.014133, 0.001248, , , 
1731955645.966090, -0.009427, 0.008380, -9.841516, -0.003659, 0.011645, -0.000280, , , 
1731955645.976109, -0.016610, 0.036811, -9.814132, -0.000896, 0.009728, -0.002320, , , 
1731955645.986075, -0.025887, 0.025289, -9.810241, -0.005264, -0.010469, -0.003325, , , 
1731955645.996049, 0.009577, 0.034267, -9.712528, -0.002874, 0.020033, 0.000379, , , 
1731955646.005338, 0.092326, -0.344466, -9.692626, -0.066780, -0.019314, 0.036991, , , 
1731955646.016127, 0.433799, -1.057938, -9.201665, -0.037793, 0.097719, 0.072448, , , 
1731955646.026056, 0.023044, -0.493206, -10.024971, 0.050248, 0.255098, 0.093772, , , 
1731955646.036049, -0.338630, 0.750433, -10.557831, 0.013514, 0.036625, 0.011892, , , 
1731955646.046132, -0.268599, 1.431733, -9.713575, -0.002970, 0.002826, -0.002419, , , 
1731955646.055263, 0.046388, -0.014814, -9.845855, -0.003355, 0.001442, -0.000537, , , 
1731955646.066074, 0.008829, 0.025289, -9.834333, -0.000875, 0.006736, -0.001024, , , 
1731955646.076094, 0.023942, -0.021847, -9.820267, -0.002995, 0.005203, -0.001231, , , 
1731955646.086123, 0.020351, -0.030526, -9.828647, -0.004594, 0.005663, -0.000693, , , 
1731955646.096050, 0.005986, 0.068684, -9.817125, -0.002255, 0.004976, -0.000605, , , 
1731955646.105194, -0.012570, 0.105644, -9.828048, -0.002829, 0.004091, -0.001645, , , 
1731955646.116054, 0.005537, 0.047435, -9.825205, -0.002369, 0.004661, -0.000969, , , 
1731955646.126070, 0.020650, -0.029179, -9.818322, -0.003744, 0.003152, -0.000402, , , 
1731955646.136051, 0.017358, -0.024541, -9.820566, -0.004698, 0.003381, -0.001986, , , 
1731955646.146125, 0.010175, 0.050129, -9.828497, -0.004308, 0.004418, -0.000201, , , 
1731955646.155826, -0.004788, 0.096217, -9.828796, -0.003408, 0.004759, -0.001369, , , 
1731955646.166052, -0.009427, 0.057461, -9.821464, -0.003862, 0.005461, -0.002196, , , 
1731955646.176050, 0.021847, -0.012270, -9.827749, -0.003970, 0.004593, -0.001694, , , 
1731955646.186050, 0.036063, -0.019902, -9.822362, -0.005433, 0.002304, -0.001080, , , 
1731955646.196063, 0.008829, 0.052373, -9.826253, -0.004255, 0.003524, -0.001914, , , 
1731955646.206087, 0.008380, 0.082151, -9.829096, -0.004484, 0.004770, -0.001410, , , 
1731955646.216125, 0.000898, 0.063446, -9.825205, -0.003372, 0.005093, -0.000123, , , 
1731955646.226058, -0.000449, -0.005387, -9.812935, -0.005016, 0.004283, 0.000190, , , 
1731955646.236111, 0.008529, -0.023493, -9.814282, -0.005502, 0.003992, -0.001178, , , 
1731955646.246073, 0.021099, 0.023044, -9.822212, -0.003974, 0.003866, -0.000952, , , 
1731955646.256081, 0.011372, 0.078260, -9.827450, -0.003896, 0.003661, -0.001418, , , 
1731955646.266119, 0.009278, 0.068833, -9.840468, -0.004040, 0.003888, -0.000242, , , 
1731955646.276064, -0.000150, 0.012570, -9.822512, -0.002561, 0.003142, -0.000968, , , 
1731955646.286086, 0.008380, -0.018106, -9.805004, -0.003832, 0.003241, -0.000927, , , 
1731955646.296047, 0.018256, 0.027683, -9.829993, -0.003983, 0.004265, -0.000737, , , 
1731955646.306046, 0.017807, 0.066888, -9.818471, -0.003800, 0.005204, -0.002442, , , 
1731955646.316117, 0.002245, 0.064195, -9.819220, -0.005008, 0.004284, -0.000894, , , 
1731955646.326070, 0.003142, 0.013318, -9.822960, -0.002263, 0.004081, -0.000575, , , 
1731955646.336088, 0.006734, -0.019453, -9.811887, -0.004824, 0.003893, -0.001998, , , 
1731955646.346050, -0.003591, 0.015413, -9.818621, -0.003975, 0.004051, 0.000681, , , 
1731955646.356104, 0.017957, 0.067337, -9.834183, -0.003482, 0.002916, 0.000925, , , 
1731955646.366052, 0.032920, 0.073322, -9.811588, -0.002567, 0.003352, -0.001301, , , 
1731955646.376130, 0.011821, 0.009726, -9.835979, -0.005071, 0.005264, 0.000853, , , 
1731955646.386062, 0.019004, -0.000748, -9.802161, -0.004292, 0.003373, -0.002181, , , 
1731955646.395686, 0.007632, 0.013168, -9.815778, -0.003847, 0.003608, -0.001166, , , 
1731955646.406036, -0.007183, 0.055815, -9.821314, -0.004245, 0.003335, -0.000459, , , 
1731955646.416060, 0.024541, 0.070479, -9.812935, -0.002558, 0.004307, -0.002815, , , 
1731955646.426029, 0.014814, 0.023792, -9.826253, -0.003443, 0.003645, -0.001303, , , 
1731955646.436097, 0.006584, -0.005088, -9.816825, -0.004846, 0.002832, -0.000224, , , 
1731955646.446054, 0.010026, 0.007183, -9.824756, -0.005047, 0.004254, -0.001153, , , 
1731955646.456071, 0.004040, 0.056563, -9.821464, -0.002787, 0.004254, -0.002516, , , 
1731955646.466044, 0.010026, 0.064793, -9.830442, -0.003613, 0.005371, -0.002000, , , 
1731955646.476055, 0.020351, 0.034866, -9.829395, -0.005078, 0.003952, -0.001695, , , 
1731955646.486094, 0.032322, 0.012570, -9.827899, -0.004715, 0.004412, 0.000120, , , 
1731955646.496048, 0.008679, 0.005836, -9.809942, -0.004236, 0.003426, -0.000511, , , 
1731955646.506050, -0.000599, 0.037858, -9.813683, -0.003530, 0.004696, -0.001270, , , 
1731955646.515338, 0.008080, 0.068085, -9.835380, -0.002343, 0.004111, -0.000965, , , 
1731955646.526043, 0.008380, 0.044143, -9.829844, -0.002906, 0.003841, -0.000749, , , 
1731955646.536085, 0.018106, 0.017059, -9.811139, -0.002314, 0.003590, -0.000477, , , 
1731955646.546045, 0.008829, 0.001945, -9.828048, -0.005492, 0.003793, 0.000583, , , 
1731955646.556050, 0.005237, 0.043545, -9.838972, -0.004844, 0.003373, -0.000863, , , 
1731955646.566047, -0.002095, 0.050578, -9.824756, -0.002828, 0.004065, -0.001183, , , 
1731955646.576046, -0.002544, 0.048931, -9.821913, -0.004005, 0.003471, -0.000817, , , 
1731955646.586104, 0.020201, 0.013168, -9.808895, -0.003248, 0.004997, -0.001049, , , 
1731955646.595223, 0.015263, -0.002693, -9.818322, -0.004429, 0.004133, -0.001176, , , 
1731955646.606123, 0.024391, 0.027833, -9.826552, -0.004990, 0.003958, 0.000210, , , 
1731955646.616123, 0.022296, 0.067337, -9.813683, -0.003256, 0.004195, 0.000050, , , 
1731955646.625165, 0.008978, 0.049380, -9.792734, -0.002848, 0.007497, -0.001322, , , 
1731955646.636041, -0.000449, -0.001945, -9.816975, -0.006230, 0.003587, -0.000404, , , 
1731955646.646042, 0.025438, 0.003442, -9.818621, 0.000465, 0.003982, -0.001089, , , 
