loggingTime(txt),loggingSample(N),accelerometerTimestamp_sinceReboot(s),accelerometerAccelerationX(G),accelerometerAccelerationY(G),accelerometerAccelerationZ(G),gyroTimestamp_sinceReboot(s),gyroRotationX(rad/s),gyroRotationY(rad/s),gyroRotationZ(rad/s),magnetometerTimestamp_sinceReboot(s),magnetometerX(µT),magnetometerY(µT),magnetometerZ(µT)
2024-10-16 18:49:06.164 +0200,1,812816.6254616667,0.003753662109375,-0.02398681640625,-0.9994659423828125,812816.6242186667,0.0007568703731521964,-0.0020809939596802,-0.0002964098239317536,812816.6203776667,298.927490234375,-225.0865325927734,-215.1769409179688
2024-10-16 18:49:06.166 +0200,2,812816.6354106667,0.0032501220703125,-0.0267791748046875,-0.9981842041015625,812816.6341676667,-0.0004974784678779542,-0.005021656397730112,-0.001112668658606708,812816.6306556667,298.7298889160156,-225.1757507324219,-214.973876953125
2024-10-16 18:49:06.166 +0200,3,812816.6453596667,0.00274658203125,-0.02593994140625,-0.9992828369140625,812816.6441166668,0.002238386776298285,-0.002304699504747987,-0.003710049670189619,812816.6409336667,299.0635681152344,-224.9671325683594,-215.0873413085938
2024-10-16 18:49:06.169 +0200,4,812816.6553086668,0.001373291015625,-0.025390625,-0.9987640380859375,812816.6540656667,0.002252501668408513,-0.002216282533481717,-0.001034638029523194,812816.6512116668,298.8140258789062,-225.0978851318359,-214.9249877929688
2024-10-16 18:49:06.179 +0200,5,812816.6652586667,0.00140380859375,-0.0249481201171875,-0.9990234375,812816.6640156667,-0.0002042644482571632,-0.004748948849737644,-0.001999235013499856,812816.6614896667,298.8794555664062,-225.0740356445312,-214.9202423095703
2024-10-16 18:49:06.189 +0200,6,812816.6752066667,0.0007476806640625,-0.0251007080078125,-0.999359130859375,812816.6739636667,0.001001082244329154,-0.001626392477191985,-0.0001448759576305747,812816.6717686667,298.7831420898438,-224.9562377929688,-214.8551330566406
2024-10-16 18:49:06.198 +0200,7,812816.6851566667,0.0015411376953125,-0.02520751953125,-0.9993133544921875,812816.6839136668,0.001943841227330267,-0.004296744242310524,-0.002103364560753107,812816.6820476667,298.8621826171875,-224.9586639404297,-215.0594177246094
2024-10-16 18:49:06.209 +0200,8,812816.6951056668,0.0008697509765625,-0.0234832763671875,-1.000518798828125,812816.6938626667,-0.0003030677326023579,-0.002862898167222738,-0.001906024408526719,812816.6923276667,298.8870239257812,-224.9494018554688,-214.9159851074219
2024-10-16 18:49:06.218 +0200,9,812816.7050546667,0.0021820068359375,-0.02313232421875,-0.9994354248046875,812816.7038116667,0.0009523464250378311,-0.003716441337019205,-0.001298024668358266,812816.7026056667,298.9884033203125,-225.0537414550781,-215.1353759765625
2024-10-16 18:49:06.228 +0200,10,812816.7150036667,0.00140380859375,-0.02484130859375,-0.999359130859375,812816.7137606667,0.003414172446355224,-0.003151052165776491,-0.002502838848158717,812816.7128846667,298.97900390625,-224.900390625,-214.8612823486328
2024-10-16 18:49:06.238 +0200,11,812816.7249526667,0.0011444091796875,-0.0252838134765625,-0.9980926513671875,812816.7237096668,0.001204814063385129,-0.001700162072665989,3.195793397026137e-05,812816.7231636667,298.9080810546875,-225.0151519775391,-214.8744354248047
2024-10-16 18:49:06.248 +0200,12,812816.7349016668,0.00244140625,-0.0246734619140625,-0.9988555908203125,812816.7336586667,-0.0009606021922081709,-0.0003733751946128905,0.001314802677370608,812816.7334426667,298.8823852539062,-225.0384368896484,-215.0864868164062
2024-10-16 18:49:06.258 +0200,13,812816.7448506667,0.001678466796875,-0.0264129638671875,-0.9983367919921875,812816.7436076667,0.001238636206835508,-0.002659698948264122,-0.002041312865912914,812816.7437216667,298.848876953125,-225.1707000732422,-215.1645965576172
2024-10-16 18:49:06.268 +0200,14,812816.7547996667,0.002960205078125,-0.0245208740234375,-0.9976654052734375,812816.7535566667,0.001708417781628668,-0.003108441596850753,-0.0033318807836622,812816.7539996667,298.9490966796875,-225.1090698242188,-214.9603271484375
2024-10-16 18:49:06.284 +0200,15,812816.7647486667,0.0040435791015625,-0.0258941650390625,-0.998138427734375,812816.7635056667,0.002386725042015314,-0.0004956142511218786,0.0004063983797095716,812816.7642776667,298.77392578125,-225.1620941162109,-214.9442291259766
2024-10-16 18:49:06.288 +0200,16,812816.7746976668,0.002105712890625,-0.024505615234375,-0.99981689453125,812816.7734546667,-0.001578189199790359,-0.002134257229045033,0.0001299622672377154,812816.7745566667,298.8840942382812,-225.1911315917969,-215.1177520751953
2024-10-16 18:49:06.298 +0200,17,812816.7846466667,0.00079345703125,-0.0252532958984375,-0.998199462890625,812816.7834036667,0.001248756190761924,-0.003631486324593425,-0.002367816399782896,812816.7848356668,298.877197265625,-225.1892395019531,-215.1697845458984
2024-10-16 18:49:06.308 +0200,18,812816.7945956667,0.00115966796875,-0.0244293212890625,-0.9998779296875,812816.7933526667,0.0001025317033054307,0.0003810983616858721,-0.001508680754341185,812816.7951136667,298.93896484375,-225.1657562255859,-215.0877075195312
2024-10-16 18:49:06.318 +0200,19,812816.8045446667,0.0030517578125,-0.0244293212890625,-0.9992523193359375,812816.8033016667,0.0007749798824079335,0.0009273127070628107,-0.001315867877565324,812816.8053916667,298.8543090820312,-225.1434478759766,-215.0494232177734
2024-10-16 18:49:06.328 +0200,20,812816.8144936668,0.00115966796875,-0.0248260498046875,-1.000350952148438,812816.8132506667,-0.002442917553707957,-0.002537992550060153,0.0004873584839515388,812816.8156696667,299.0647888183594,-225.1656494140625,-215.2075347900391
2024-10-16 18:49:06.343 +0200,21,812816.8244426667,0.0009613037109375,-0.0240478515625,-0.9980010986328125,812816.8231996667,-0.001470863819122314,0.000609863898716867,-0.002496713539585471,812816.8259486667,298.8607177734375,-225.1980133056641,-215.1083984375
2024-10-16 18:49:06.348 +0200,22,812816.8343916667,0.00262451171875,-0.02459716796875,-0.998199462890625,812816.8331486668,0.0002801645314320922,-0.0001664475712459534,-0.0004218447138555348,812816.8362256667,298.9215698242188,-225.0146026611328,-215.4678039550781
2024-10-16 18:49:06.358 +0200,23,812816.8443406667,0.0034027099609375,-0.02587890625,-0.9995574951171875,812816.8430976667,0.003466636873781681,-0.00245143985375762,-0.002502572489902377,812816.8362256667,298.9215698242188,-225.0146026611328,-215.4678039550781
2024-10-16 18:49:06.368 +0200,24,812816.8542896667,0.002471923828125,-0.0242767333984375,-0.9989776611328125,812816.8530466667,0.002148904604837298,-0.001499093370512128,-0.001475391210988164,812816.8465036667,298.9892883300781,-224.9383239746094,-215.0911560058594
2024-10-16 18:49:06.378 +0200,25,812816.8642386667,0.00115966796875,-0.0259246826171875,-0.9972991943359375,812816.8629956667,0.002558498876169324,-0.002918824553489685,-0.002922819228842854,812816.8567816667,298.9645385742188,-225.0511779785156,-215.1229400634766
2024-10-16 18:49:06.388 +0200,26,812816.8741876667,0.003143310546875,-0.02508544921875,-0.99810791015625,812816.8729446668,0.0002061286650132388,-0.002042910782620311,-0.002068743575364351,812816.8670606667,299.0953369140625,-225.0322418212891,-215.0687561035156
2024-10-16 18:49:06.398 +0200,27,812816.8841366667,0.0039520263671875,-0.025909423828125,-1.000045776367188,812816.8828936667,0.00233825552277267,-0.002668221015483141,-0.0001882854849100113,812816.8773396667,298.9415283203125,-225.0916290283203,-215.236328125
2024-10-16 18:49:06.412 +0200,28,812816.8940856667,0.002288818359375,-0.025360107421875,-0.999542236328125,812816.8928426667,0.001734250457957387,-0.001302818418480456,-0.001757420017383993,812816.8876186667,298.8653564453125,-224.8599243164062,-215.0116271972656
2024-10-16 18:49:06.417 +0200,29,812816.9040346667,0.0036163330078125,-0.02490234375,-0.9989013671875,812816.9027916667,0.0009273127070628107,-0.002850913908332586,-0.0001166464571724646,812816.8978976667,298.828857421875,-225.0517730712891,-215.1516418457031
2024-10-16 18:49:06.427 +0200,30,812816.9139836667,0.00347900390625,-0.024932861328125,-0.9989166259765625,812816.9127406668,0.001262338366359472,-0.003580353688448668,-0.003310575615614653,812816.9081756667,298.8641052246094,-225.0560150146484,-215.0617370605469
2024-10-16 18:49:06.437 +0200,31,812816.9239326668,0.0023956298828125,-0.025299072265625,-0.9991912841796875,812816.9226896667,-0.0004197141970507801,-0.002375007141381502,0.0004000068001914769,812816.9184536667,298.7125244140625,-224.9718170166016,-215.0191497802734
2024-10-16 18:49:06.447 +0200,32,812816.9338816667,0.0009613037109375,-0.0261383056640625,-0.9995880126953125,812816.9326386667,0.002177134156227112,-0.002711630659177899,-0.001051682280376554,812816.9287316668,298.7154235839844,-225.062255859375,-214.9248504638672
2024-10-16 18:49:06.465 +0200,33,812816.9438306667,-0.0001373291015625,-0.024627685546875,-0.9992523193359375,812816.9425876667,0.001741174724884331,-0.00307648372836411,-0.001071656006388366,812816.9390086667,298.7668151855469,-224.97314453125,-215.5531616210938
2024-10-16 18:49:06.467 +0200,34,812816.9537796667,0.000518798828125,-0.0253143310546875,-0.9997100830078125,812816.9525366668,0.001140365609899163,-0.003434146288782358,-0.003630421124398708,812816.9492876667,298.7767944335938,-224.9172973632812,-214.9767150878906
2024-10-16 18:49:06.477 +0200,35,812816.9637286668,0.0020294189453125,-0.0253448486328125,-0.998809814453125,812816.9624856667,0.003020823700353503,-0.003518301993608475,-0.00313454051502049,812816.9595666667,298.8841552734375,-224.9615478515625,-215.1478576660156
2024-10-16 18:49:06.487 +0200,36,812816.9736776667,0.001373291015625,-0.0251922607421875,-0.9998321533203125,812816.9724346667,0.002825347473844886,-0.005208610557019711,-0.001936384360305965,812816.9698456667,298.8611755371094,-225.0204162597656,-214.966552734375
2024-10-16 18:49:06.497 +0200,37,812816.9836266667,0.000762939453125,-0.0254974365234375,-0.999481201171875,812816.9823836667,0.0004980111261829734,-0.0004135889175813645,-0.002614957746118307,812816.9801246667,298.81640625,-224.9192504882812,-215.1286468505859
2024-10-16 18:49:06.507 +0200,38,812816.9935756667,0.00048828125,-0.02557373046875,-0.999664306640625,812816.9923326668,0.002207227982580662,-0.004564658273011446,-0.0008460862445645034,812816.9904026667,298.8995971679688,-225.03857421875,-215.0746307373047
2024-10-16 18:49:06.517 +0200,39,812817.0035241251,0.001983642578125,-0.025390625,-0.9990386962890625,812817.0022811251,0.00281602656468749,-0.002415753435343504,-0.002812031889334321,812817.0006806668,298.9129028320312,-225.0475006103516,-215.1500854492188
2024-10-16 18:49:06.527 +0200,40,812817.0134731251,0.0014190673828125,-0.024444580078125,-0.9989471435546875,812817.012230125,0.000215716048842296,0.000401604687795043,-0.001505484920926392,812817.010958125,298.93701171875,-225.0108184814453,-215.3163146972656
2024-10-16 18:49:06.537 +0200,41,812817.023422125,0.00311279296875,-0.0255279541015625,-0.9981536865234375,812817.022179125,0.00222027744166553,-0.001549160806462169,-0.002780872862786055,812817.021236125,298.8970336914062,-225.0091857910156,-215.1203155517578
2024-10-16 18:49:06.547 +0200,42,812817.033371125,0.0047760009765625,-0.0255584716796875,-0.9999237060546875,812817.0321281251,0.001288970001041889,-0.002302569104358554,-0.002657834673300385,812817.0315141251,298.9473876953125,-224.9614410400391,-215.3688354492188
2024-10-16 18:49:06.557 +0200,43,812817.0433201251,0.002044677734375,-0.024993896484375,-0.9994049072265625,812817.0420771251,8.202536264434457e-05,-0.002436526119709015,-0.002557699801400304,812817.0417921251,299.122314453125,-224.8009185791016,-215.3791656494141
2024-10-16 18:49:06.567 +0200,44,812817.0532691251,0.0027313232421875,-0.025390625,-0.9995880126953125,812817.052026125,0.002222407842054963,-0.001752360025420785,-0.003360376693308353,812817.052070125,298.9022521972656,-225.0066375732422,-215.3102264404297
2024-10-16 18:49:06.583 +0200,45,812817.063218125,0.0023651123046875,-0.025177001953125,-1.001312255859375,812817.0619751251,0.0009946906939148903,-0.001736647333018482,-0.001740375766530633,812817.062348125,298.9757690429688,-225.0239105224609,-215.6461639404297
2024-10-16 18:49:06.587 +0200,46,812817.073167125,-3.0517578125e-05,-0.0261077880859375,-0.9994049072265625,812817.0719241251,0.001180845662020147,-0.0005752427969127893,-0.002180329989641905,812817.0726261251,298.9891357421875,-224.9187774658203,-215.1708068847656
2024-10-16 18:49:06.597 +0200,47,812817.0831161251,0.0009918212890625,-0.0254058837890625,-1.000473022460938,812817.081873125,0.002990729873999953,-0.002014148747548461,-0.003300189273431897,812817.0829041251,298.918701171875,-225.0201873779297,-215.2265319824219
2024-10-16 18:49:06.606 +0200,48,812817.0930661251,0.0016937255859375,-0.0251007080078125,-1.001052856445312,812817.091823125,0.00227939966134727,-0.0008317052270285785,-0.001862082164734602,812817.093182125,299.2057495117188,-225.0009307861328,-215.1980590820312
2024-10-16 18:49:06.616 +0200,49,812817.103015125,0.001068115234375,-0.024169921875,-1.000946044921875,812817.101772125,0.000174170738318935,0.0003472761891316622,-0.001300687901675701,812817.1034611251,298.7941284179688,-224.9469146728516,-215.3105926513672
2024-10-16 18:49:06.626 +0200,50,812817.112964125,0.0017242431640625,-0.0261383056640625,-0.99822998046875,812817.1117211251,0.0005318332696333528,-0.0007829693495295942,-0.001031175954267383,812817.1137391251,298.7898559570312,-224.9921569824219,-214.924560546875
2024-10-16 18:49:06.644 +0200,51,812817.1229131251,0.0024566650390625,-0.0253143310546875,-0.9994659423828125,812817.1216701251,0.0009334379574283957,-0.003297525923699141,-0.0008474178612232208,812817.124018125,298.9761352539062,-225.0695190429688,-215.2403717041016
2024-10-16 18:49:06.646 +0200,52,812817.1328621251,0.0009002685546875,-0.025115966796875,-0.9990234375,812817.131619125,0.001168328803032637,-0.002459162846207619,-0.001512142829596996,812817.134296125,298.9849853515625,-224.9101257324219,-215.06982421875
2024-10-16 18:49:06.656 +0200,53,812817.142811125,0.0019683837890625,-0.025054931640625,-0.9988861083984375,812817.141568125,0.0006556702428497374,-0.004032558295875788,-0.003538808319717646,812817.1445741251,298.9881286621094,-224.9048614501953,-215.1703948974609
2024-10-16 18:49:06.666 +0200,54,812817.152760125,0.002777099609375,-0.0261993408203125,-0.9998779296875,812817.1515171251,-0.0007861651247367263,-0.003115632105618715,-0.001530518638901412,812817.1445741251,298.9881286621094,-224.9048614501953,-215.1703948974609
2024-10-16 18:49:06.676 +0200,55,812817.1627091251,0.0019683837890625,-0.0259552001953125,-0.998992919921875,812817.161466125,0.002068210858851671,-0.0006607302348129451,-0.0004884237423539162,812817.1548521251,298.8681335449219,-224.9944000244141,-215.1855926513672
2024-10-16 18:49:06.686 +0200,56,812817.1726581251,0.0039520263671875,-0.025543212890625,-1.000656127929688,812817.171415125,0.001874332781881094,-0.00304612354375422,-0.003316967049613595,812817.165130125,298.9999084472656,-224.9408874511719,-215.151123046875
2024-10-16 18:49:06.697 +0200,57,812817.182607125,0.0030059814453125,-0.0239410400390625,-0.9988861083984375,812817.1813641251,0.001144360285252333,-0.003351854626089334,0.001408812240697443,812817.175408125,299.0645141601562,-224.7788543701172,-215.2548675537109
2024-10-16 18:49:06.711 +0200,58,812817.192556125,0.00286865234375,-0.023773193359375,-0.9993133544921875,812817.1913131251,-0.001165665569715202,-0.002613626187667251,-0.002781139221042395,812817.1856861251,299.2049560546875,-224.8386840820312,-214.9869842529297
2024-10-16 18:49:06.716 +0200,59,812817.2025051251,0.00244140625,-0.024444580078125,-0.9983978271484375,812817.201262125,-0.0002665824140422046,-0.004350007511675358,-0.0008077367674559355,812817.1959641251,298.9307861328125,-224.9131317138672,-215.1911315917969
2024-10-16 18:49:06.726 +0200,60,812817.2124541251,0.0023040771484375,-0.0254669189453125,-0.999267578125,812817.211211125,0.001154746627435088,-0.001408812240697443,-0.0006785734440200031,812817.206241125,298.9530639648438,-224.8852081298828,-215.0683746337891
2024-10-16 18:49:06.736 +0200,61,812817.222403125,0.0020294189453125,-0.02545166015625,-1.000350952148438,812817.2211601251,0.002381132217124104,-0.002897253027185798,0.0002292981662321836,812817.216520125,298.8972778320312,-225.053466796875,-215.1641235351562
2024-10-16 18:49:06.746 +0200,62,812817.232352125,0.0013275146484375,-0.0250244140625,-0.99932861328125,812817.2311091251,-9.427589975530282e-05,-0.001915079075843096,-0.0001265001483261585,812817.2267971251,299.0651245117188,-224.8418426513672,-214.9065399169922
2024-10-16 18:49:06.763 +0200,63,812817.2423011251,0.002471923828125,-0.0247802734375,-0.9994659423828125,812817.241058125,0.0007984156836755574,-0.002440787153318524,-0.002041579224169254,812817.2370751251,298.8997802734375,-224.9621734619141,-215.1845092773438
2024-10-16 18:49:06.766 +0200,64,812817.252250125,0.0025634765625,-0.0261077880859375,-0.9989013671875,812817.251007125,0.002814428647980094,-0.004533499013632536,-0.002125468803569674,812817.247353125,299.0101928710938,-225.1811828613281,-215.1231231689453
2024-10-16 18:49:06.776 +0200,65,812817.262199125,0.0007171630859375,-0.0248565673828125,-0.999298095703125,812817.2609561251,0.0002039981336565688,-0.002496979897841811,-0.001051416038535535,812817.257631125,299.0465087890625,-225.2001342773438,-215.1197357177734
2024-10-16 18:49:06.785 +0200,66,812817.2721481251,0.000823974609375,-0.025360107421875,-0.9987640380859375,812817.2709051251,-0.001430916483514011,-0.002527872566133738,-0.0002767024270724505,812817.2679081251,298.8342895507812,-224.9654846191406,-214.9933624267578
2024-10-16 18:49:06.796 +0200,67,812817.2820971251,0.001708984375,-0.024200439453125,-0.998138427734375,812817.280854125,-0.001074319123290479,-0.002202167874202132,0.0001720402069622651,812817.2781861251,298.9310607910156,-225.0510559082031,-215.396240234375
2024-10-16 18:49:06.805 +0200,68,812817.292046125,0.0034027099609375,-0.0239105224609375,-0.99932861328125,812817.290803125,-0.0004902879591099918,-0.00180881901178509,-0.001412806916050613,812817.288464125,299.0061340332031,-225.1483306884766,-215.0464172363281
2024-10-16 18:49:06.817 +0200,69,812817.301995125,0.0027313232421875,-0.02532958984375,-0.9987030029296875,812817.3007521251,0.002590989461168647,-0.004485296085476875,-0.001103081274777651,812817.298742125,298.9351501464844,-225.1301116943359,-215.0867919921875
2024-10-16 18:49:06.827 +0200,70,812817.3119441251,0.0034332275390625,-0.0251617431640625,-0.9997406005859375,812817.3107011251,0.0006213154993019998,-0.002563292626291513,-6.817692337790504e-05,812817.3090201251,298.8971557617188,-225.0146331787109,-215.1302185058594
2024-10-16 18:49:06.835 +0200,71,812817.3218931251,0.0018768310546875,-0.024688720703125,-0.998779296875,812817.320650125,0.0007813714328221977,-0.001298557384870946,-0.0006884271278977394,812817.3192981251,298.691162109375,-225.0612945556641,-215.1996154785156
2024-10-16 18:49:06.845 +0200,72,812817.331842125,0.0018310546875,-0.0245361328125,-0.9990692138671875,812817.330599125,0.003854925744235516,-0.004630704410374165,-0.003922836389392614,812817.329577125,298.7127990722656,-225.1624755859375,-214.9551086425781
2024-10-16 18:49:06.855 +0200,73,812817.341791125,0.0030517578125,-0.0233154296875,-0.99957275390625,812817.3405481251,0.0008263788768090308,-0.001389104756526649,-7.989483492565341e-07,812817.339854125,298.8317260742188,-225.2063140869141,-215.3814544677734
2024-10-16 18:49:06.865 +0200,74,812817.3517401251,0.0031585693359375,-0.0258636474609375,-0.9983673095703125,812817.3504971251,0.001672731479629874,-0.002031725598499179,-0.001854092697612941,812817.3501321251,298.8098754882812,-225.2017669677734,-214.9778137207031
2024-10-16 18:49:06.883 +0200,75,812817.3616891251,0.001190185546875,-0.025054931640625,-0.997528076171875,812817.360446125,-0.0001744370529195294,-0.001561145065352321,-0.002479403046891093,812817.3604091251,298.7801513671875,-225.2702789306641,-214.9602966308594
2024-10-16 18:49:06.885 +0200,76,812817.371638125,0.00091552734375,-0.0258026123046875,-0.999114990234375,812817.370395125,0.002287921728566289,0.0008724515791982412,0.0004436826275195926,812817.370687125,298.9432678222656,-225.0790863037109,-215.2234039306641
2024-10-16 18:49:06.895 +0200,77,812817.381587125,0.00103759765625,-0.026519775390625,-0.9998931884765625,812817.3803441251,0.001620267168618739,0.001573928166180849,-0.003107376396656036,812817.380964125,298.9887084960938,-225.0173797607422,-215.1863250732422
2024-10-16 18:49:06.905 +0200,78,812817.3915361251,0.00286865234375,-0.0252685546875,-0.99945068359375,812817.3902931251,0.002572347177192569,-0.00395665830001235,-0.0007976167253218591,812817.3912431251,299.0317993164062,-225.0754089355469,-215.0760498046875
2024-10-16 18:49:06.915 +0200,79,812817.4014851251,0.0019073486328125,-0.0248260498046875,-0.99920654296875,812817.400242125,0.001840244280174375,-0.003323625074699521,-0.002042910782620311,812817.401521125,298.7924194335938,-225.0643615722656,-215.3107604980469
2024-10-16 18:49:06.925 +0200,80,812817.411434125,0.0031280517578125,-0.0254974365234375,-0.9993743896484375,812817.410191125,-0.0004215783847030252,0.001235174131579697,-0.001986185554414988,812817.411799125,298.9505615234375,-225.0354461669922,-215.1681671142578
2024-10-16 18:49:06.944 +0200,81,812817.421383125,0.0030975341796875,-0.024505615234375,-0.9996490478515625,812817.4201401251,-0.0004362257895991206,-0.0001339570007985458,-0.001763545209541917,812817.4220781251,298.8670349121094,-225.1415252685547,-215.2279663085938
2024-10-16 18:49:06.945 +0200,82,812817.4313321251,0.0027313232421875,-0.02520751953125,-0.999603271484375,812817.4300891251,0.0009297095239162445,-0.002708168467506766,-0.0009078715811483562,812817.4323561251,298.98828125,-225.0601196289062,-215.3218231201172
2024-10-16 18:49:06.955 +0200,83,812817.4412811251,0.001953125,-0.024688720703125,-1.000076293945312,812817.440038125,0.001102548674680293,-0.0008615325787104666,-0.001308144768700004,812817.442634125,298.913330078125,-225.3146057128906,-215.0585632324219
2024-10-16 18:49:06.965 +0200,84,812817.451230125,0.0030670166015625,-0.0252685546875,-0.99951171875,812817.449987125,0.0001621865085326135,-0.003677559085190296,-0.002351837465539575,812817.452912125,298.9053344726562,-225.0491180419922,-215.0763397216797
2024-10-16 18:49:06.975 +0200,85,812817.461179125,0.002044677734375,-0.0248565673828125,-0.998931884765625,812817.4599361251,-0.001151817152276635,-0.001257278374396265,-0.004717790056020021,812817.452912125,298.9053344726562,-225.0491180419922,-215.0763397216797
2024-10-16 18:49:06.984 +0200,86,812817.4711281251,0.0009765625,-0.0253143310546875,-0.9976959228515625,812817.4698851251,0.001996838254854083,-0.001976598054170609,-1.837581112340558e-05,812817.4631901251,298.8357543945312,-225.1075592041016,-214.9856872558594
2024-10-16 18:49:06.997 +0200,87,812817.4810771251,0.0020751953125,-0.024658203125,-0.9980926513671875,812817.479834125,0.001674595638178289,-0.001674329396337271,-0.0003254382754676044,812817.4734671251,298.78564453125,-224.9629669189453,-215.0360870361328
2024-10-16 18:49:07.011 +0200,88,812817.491027125,-0.0011138916015625,-0.0255889892578125,-0.9992218017578125,812817.489784125,-0.0007195860962383449,-0.0002511360798962414,-0.00204743817448616,812817.483744125,298.5437622070312,-225.2602386474609,-215.1171875
2024-10-16 18:49:07.014 +0200,89,812817.500976125,0.001861572265625,-0.02587890625,-0.9994049072265625,812817.4997331251,0.0002332929143449292,-0.001270860433578491,-0.001055677072145045,812817.494022125,298.6745300292969,-225.0749664306641,-215.1104888916016
2024-10-16 18:49:07.024 +0200,90,812817.5109251251,0.001129150390625,-0.025115966796875,-0.9998016357421875,812817.5096821251,0.002524943090975285,-0.003785949666053057,-0.00143517751712352,812817.5043001251,298.8229370117188,-225.3298797607422,-215.3394317626953
2024-10-16 18:49:07.034 +0200,91,812817.5208741251,0.0011138916015625,-0.0235748291015625,-0.999755859375,812817.519631125,0.002210689941421151,-0.001126250834204257,-0.00158191763330251,812817.5145781251,298.7610473632812,-225.1104888916016,-215.02734375
2024-10-16 18:49:07.044 +0200,92,812817.530823125,0.0025634765625,-0.0256195068359375,-0.997772216796875,812817.529580125,0.001865810598246753,-0.0001166464571724646,0.000171241263160482,812817.524856125,298.7612915039062,-225.2870788574219,-215.3197021484375
2024-10-16 18:49:07.063 +0200,93,812817.540772125,0.002777099609375,-0.0253143310546875,-0.998748779296875,812817.5395291251,-2.956108801299706e-05,-0.003421895671635866,-0.0009017463307827711,812817.535134125,298.9010009765625,-225.1805267333984,-214.9806976318359
2024-10-16 18:49:07.064 +0200,94,812817.5507211251,0.003082275390625,-0.02459716796875,-1.000686645507812,812817.5494781251,0.003344397759065032,-0.001974467653781176,-0.002619751496240497,812817.5454111251,298.7880859375,-225.2194976806641,-215.1104278564453
2024-10-16 18:49:07.074 +0200,95,812817.5606701251,0.0016937255859375,-0.0253753662109375,-1.000259399414062,812817.559427125,0.0007789746159687638,-0.004346545320004225,-0.0001834917929954827,812817.5556901251,298.8572082519531,-225.1600189208984,-215.1122436523438
2024-10-16 18:49:07.084 +0200,96,812817.570619125,0.002593994140625,-0.02459716796875,-0.9977569580078125,812817.569376125,0.001213868847116828,-0.002802178030833602,-0.002781938062980771,812817.565968125,299.0178833007812,-225.1946563720703,-215.2808990478516
2024-10-16 18:49:07.094 +0200,97,812817.580568125,0.0045166015625,-0.0239105224609375,-1.0008544921875,812817.5793251251,-0.0003067961661145091,0.0001957423373823985,0.0002649845264386386,812817.576247125,298.763671875,-225.1672058105469,-215.3075408935547
2024-10-16 18:49:07.104 +0200,98,812817.5905171251,0.0016326904296875,-0.022979736328125,-1.000015258789062,812817.5892741251,0.00117924774531275,-0.001756354700773954,-0.0009462211164645851,812817.5865241251,298.7335510253906,-225.2089385986328,-215.3186645507812
2024-10-16 18:49:07.117 +0200,99,812817.6004661251,0.0032196044921875,-0.0247650146484375,-0.998626708984375,812817.599223125,0.002487392397597432,-0.00347462622448802,-0.0007472829893231392,812817.5968011251,298.6480712890625,-225.2076873779297,-215.2896118164062
2024-10-16 18:49:07.128 +0200,100,812817.610415125,0.0015716552734375,-0.025909423828125,-0.9999237060546875,812817.609172125,-0.001294828951358795,-0.0009941579774022102,0.0006226470577530563,812817.607078125,298.8545837402344,-225.1500396728516,-215.1318664550781
2024-10-16 18:49:07.134 +0200,101,812817.620364125,0.00091552734375,-0.0245513916015625,-1,812817.6191211251,6.55137628200464e-05,-0.002372610149905086,-0.001344097428955138,812817.617356125,298.6753234863281,-225.0428771972656,-214.9846649169922
2024-10-16 18:49:07.144 +0200,102,812817.6303131251,0.0018463134765625,-0.0246429443359375,-0.9983367919921875,812817.6290701251,-0.001001082244329154,-0.001860218006186187,-0.0009568737586960196,812817.6276331251,298.9003295898438,-225.1131134033203,-215.2855224609375
2024-10-16 18:49:07.154 +0200,103,812817.6402621251,-3.0517578125e-05,-0.0232391357421875,-0.9998779296875,812817.639019125,-0.0001707086194073781,0.001462341751903296,-0.002624545246362686,812817.6379121251,298.9098510742188,-225.007568359375,-215.5466613769531
2024-10-16 18:49:07.164 +0200,104,812817.650211125,0.0020294189453125,-0.0236663818359375,-0.999603271484375,812817.648968125,-0.001076449756510556,-0.0004799016169272363,0.0006998787284828722,812817.648190125,298.828369140625,-225.1952514648438,-214.9623107910156
2024-10-16 18:49:07.173 +0200,105,812817.660160125,0.0025634765625,-0.024658203125,-1.0001220703125,812817.6589171251,0.002318015322089195,-0.003508714726194739,-0.002541454508900642,812817.658467125,298.9020690917969,-224.9069519042969,-215.2248840332031
2024-10-16 18:49:07.184 +0200,106,812817.6701091251,0.0020294189453125,-0.0233001708984375,-0.99993896484375,812817.6688661251,0.0007829693495295942,-0.00258885882794857,-0.002605370478704572,812817.6687451251,298.8779602050781,-224.9719543457031,-214.9800262451172
2024-10-16 18:49:07.193 +0200,107,812817.6800581251,0.0024566650390625,-0.0250244140625,-1.00006103515625,812817.678815125,0.002145442645996809,-0.001922802301123738,-0.001311340485699475,812817.6790231251,298.9763793945312,-225.0830841064453,-215.3110809326172
2024-10-16 18:49:07.203 +0200,108,812817.690007125,0.0026397705078125,-0.0260467529296875,-0.999053955078125,812817.688764125,-0.001572596607729793,-0.0009230516152456403,0.0001818939053919166,812817.689301125,299.0423583984375,-225.0346984863281,-215.2942199707031
2024-10-16 18:49:07.213 +0200,109,812817.699956125,0.0020294189453125,-0.0251007080078125,-0.99957275390625,812817.6987131251,0.002119876211509109,-0.000788561999797821,-0.002717489609494805,812817.699579125,298.9827575683594,-225.1032104492188,-215.2343597412109
2024-10-16 18:49:07.223 +0200,110,812817.7099051251,0.00152587890625,-0.0258636474609375,-0.9982757568359375,812817.708662125,-0.001186970854178071,-0.00199390877969563,-0.0003414172388147563,812817.7098571251,298.841796875,-225.0098571777344,-215.1372680664062
2024-10-16 18:49:07.233 +0200,111,812817.7198541251,0.002105712890625,-0.0251312255859375,-1.000015258789062,812817.718611125,0.0008346347021870315,-0.001348092104308307,-0.001553954440169036,812817.7201341251,298.8810424804688,-225.0862731933594,-215.0403594970703
2024-10-16 18:49:07.244 +0200,112,812817.729803125,0.00079345703125,-0.0257720947265625,-1.000228881835938,812817.7285601251,0.002352902898564935,-0.003240001853555441,-0.002313487930223346,812817.730412125,298.9898071289062,-224.8959045410156,-214.986328125
2024-10-16 18:49:07.253 +0200,113,812817.739752125,0.00177001953125,-0.02423095703125,-0.999542236328125,812817.7385091251,0.003227751236408949,-0.003054911969229579,-0.0020477045327425,812817.740690125,299.0773315429688,-225.0115814208984,-215.1600036621094
2024-10-16 18:49:07.263 +0200,114,812817.7497011251,0.0020294189453125,-0.0242919921875,-0.9978485107421875,812817.748458125,-0.001245560473762453,-0.004348143003880978,4.394215648062527e-05,812817.7509691251,299.1083984375,-225.0200347900391,-215.1724243164062
2024-10-16 18:49:07.273 +0200,115,812817.7596501251,0.0011444091796875,-0.0240020751953125,-0.9978790283203125,812817.758407125,0.001980326604098082,-0.0009286442655138671,0.00115421402733773,812817.7612471251,298.8673095703125,-225.0510864257812,-215.0389099121094
2024-10-16 18:49:07.283 +0200,116,812817.769599125,0.001556396484375,-0.0243988037109375,-0.9996337890625,812817.7683561251,0.002172606764361262,-0.004475442226976156,-1.784317828423809e-05,812817.771525125,298.8572998046875,-225.0507049560547,-214.7567596435547
2024-10-16 18:49:07.293 +0200,117,812817.779548125,0.001953125,-0.024322509765625,-0.999114990234375,812817.7783051251,0.001852494897320867,-0.001637577777728438,-0.001169127761386335,812817.771525125,298.8572998046875,-225.0507049560547,-214.7567596435547
2024-10-16 18:49:07.303 +0200,118,812817.7894971251,0.0010528564453125,-0.023681640625,-1.000030517578125,812817.788254125,0.001030110754072666,-0.003171558491885662,-0.002322542713955045,812817.781803125,298.9852905273438,-225.0760040283203,-215.1496276855469
2024-10-16 18:49:07.313 +0200,119,812817.799446125,0.0013580322265625,-0.024078369140625,-1.000244140625,812817.798203125,0.0003616572648752481,-0.002871420234441757,-0.001206944580189884,812817.7920801251,298.956298828125,-225.0594177246094,-215.0076599121094
2024-10-16 18:49:07.323 +0200,120,812817.809395125,0.00360107421875,-0.0257568359375,-0.999176025390625,812817.8081521251,0.002628273563459516,-0.003288205014541745,-0.002681270474568009,812817.8023581251,298.8040771484375,-225.1488952636719,-214.8823547363281
2024-10-16 18:49:07.333 +0200,121,812817.8193441251,0.0017852783203125,-0.0263671875,-0.99951171875,812817.8181011251,0.002601109445095062,-0.003263703780248761,-0.0006841660942882299,812817.812636125,298.8465881347656,-224.9488983154297,-214.7538299560547
2024-10-16 18:49:07.343 +0200,122,812817.8292931251,0.0027618408203125,-0.02581787109375,-0.99884033203125,812817.828050125,0.001665274612605572,-0.00180908537004143,-0.0009925601771101356,812817.822914125,299.0587158203125,-225.0153656005859,-215.0044708251953
2024-10-16 18:49:07.353 +0200,123,812817.839242125,0.003814697265625,-0.0255584716796875,-0.9997406005859375,812817.837999125,0.002045574132353067,-0.002412557601928711,0.0003621898940764368,812817.8331931251,298.9591979980469,-224.9135894775391,-215.0387115478516
2024-10-16 18:49:07.363 +0200,124,812817.849191125,0.0020599365234375,-0.02520751953125,-0.9981231689453125,812817.8479481251,0.0004442152567207813,-0.001869272789917886,-0.00176221365109086,812817.843471125,298.778564453125,-225.1137237548828,-215.1016998291016
2024-10-16 18:49:07.373 +0200,125,812817.8591401251,0.0028228759765625,-0.0245513916015625,-0.9987030029296875,812817.8578971251,0.002061553066596389,0.0004141215467825532,-0.0007829693495295942,812817.853749125,298.891845703125,-224.9432525634766,-214.8518371582031
2024-10-16 18:49:07.382 +0200,126,812817.8690891251,0.0028076171875,-0.02532958984375,-0.998992919921875,812817.867846125,0.003777960315346718,0.0004913532175123692,-0.0005789712304249406,812817.8640281251,298.9441528320312,-225.1130676269531,-215.2215118408203
2024-10-16 18:49:07.392 +0200,127,812817.8790391251,0.000885009765625,-0.025634765625,-1.000289916992188,812817.877796125,-0.001092162332497537,-0.001536910305730999,-0.001009604311548173,812817.8743061251,298.7961730957031,-225.1644897460938,-215.1179046630859
2024-10-16 18:49:07.402 +0200,128,812817.888988125,0.00128173828125,-0.0240478515625,-0.9994354248046875,812817.8877451251,0.001317732152529061,-0.003610979998484254,0.0003989415417890996,812817.884584125,298.8267211914062,-225.1757965087891,-214.8688201904297
2024-10-16 18:49:07.412 +0200,129,812817.898937125,0.0010833740234375,-0.0253753662109375,-0.999237060546875,812817.8976941251,0.001803492661565542,-0.0009291769238188863,-0.004670917987823486,812817.8948631251,298.8501892089844,-225.0636596679688,-214.7935791015625
2024-10-16 18:49:07.428 +0200,130,812817.9088861251,0.0019378662109375,-0.0254669189453125,-0.9986419677734375,812817.907643125,0.002599777886644006,-0.001719869440421462,-0.002383529208600521,812817.9051411251,298.8756103515625,-225.1305236816406,-214.6676330566406
2024-10-16 18:49:07.432 +0200,131,812817.918835125,0.002227783203125,-0.0254364013671875,-0.999176025390625,812817.917592125,0.002383529208600521,-0.002256496343761683,-0.001284708851017058,812817.9154181251,298.82861328125,-224.9827270507812,-214.7605743408203
2024-10-16 18:49:07.442 +0200,132,812817.928784125,0.001953125,-0.024658203125,-0.999053955078125,812817.9275411251,0.0003808320325333625,-0.003590207546949387,-0.0005605954211205244,812817.925695125,299.0616455078125,-225.0774078369141,-215.0105590820312
2024-10-16 18:49:07.452 +0200,133,812817.9387331251,0.002777099609375,-0.025665283203125,-0.998199462890625,812817.9374901251,0.001245826715603471,-0.003000051015987992,-0.00236648484133184,812817.935972125,298.9780883789062,-225.1600799560547,-215.1057739257812
2024-10-16 18:49:07.462 +0200,134,812817.9486821251,0.00323486328125,-0.0254974365234375,-0.9981842041015625,812817.947439125,0.0008194546680897474,-0.004057325888425112,-0.001680720946751535,812817.9462481251,298.8217163085938,-225.121337890625,-214.9496765136719
2024-10-16 18:49:07.472 +0200,135,812817.958631125,0.0042724609375,-0.0261383056640625,-0.9988250732421875,812817.957388125,0.001690041972324252,-0.003378219902515411,-0.001711879973299801,812817.9565261251,298.70703125,-225.1777191162109,-214.9488067626953
2024-10-16 18:49:07.483 +0200,136,812817.968580125,0.0032196044921875,-0.0255584716796875,-1.000228881835938,812817.9673371251,0.003271160647273064,-0.002170210005715489,-0.003678358159959316,812817.9668021251,298.7245483398438,-224.9551696777344,-214.9736328125
2024-10-16 18:49:07.492 +0200,137,812817.9785291251,0.003692626953125,-0.027099609375,-1.000778198242188,812817.9772861251,0.002947586588561535,-0.002260757377371192,-0.001623463002033532,812817.977079125,298.8984375,-225.0114440917969,-215.1521453857422
2024-10-16 18:49:07.502 +0200,138,812817.9884781251,0.0011749267578125,-0.02386474609375,-0.99945068359375,812817.987235125,-0.000984836951829493,-0.00250496924854815,-0.004275172483175993,812817.987358125,298.8550720214844,-225.0281677246094,-214.7416839599609
2024-10-16 18:49:07.512 +0200,139,812817.998427125,0.00128173828125,-0.02410888671875,-0.99853515625,812817.997184125,-0.000227433949476108,-0.001454085926525295,0.0001070590733434074,812817.9976361251,298.7997741699219,-224.9155731201172,-215.3771209716797
2024-10-16 18:49:07.522 +0200,140,812818.0083758751,0.0025482177734375,-0.0240478515625,-0.9986572265625,812818.007132875,0.004546815063804388,0.0002761697978712618,-0.002529204124584794,812818.007913875,298.9673461914062,-225.13916015625,-214.8375396728516
2024-10-16 18:49:07.532 +0200,141,812818.018324875,0.0011749267578125,-0.025177001953125,-0.999725341796875,812818.017081875,0.0001845570659497753,-0.000984570593573153,-0.001169660361483693,812818.0181928751,298.6740112304688,-225.2161712646484,-214.94970703125
2024-10-16 18:49:07.545 +0200,142,812818.028273875,0.0006103515625,-0.024658203125,-1.000839233398438,812818.0270308751,0.0007456850726157427,-0.003657319117337465,-0.002497512381523848,812818.028470875,298.86279296875,-225.0153656005859,-215.0174865722656
2024-10-16 18:49:07.552 +0200,143,812818.0382228751,0.00091552734375,-0.02520751953125,-0.9988861083984375,812818.0369798751,0.0042706448584795,-0.0006785734440200031,-0.001329450053162873,812818.038748875,298.8455200195312,-224.9316864013672,-215.0379638671875
2024-10-16 18:49:07.562 +0200,144,812818.0481718751,0.0003814697265625,-0.0253143310546875,-1.000503540039062,812818.046928875,0.001031442312523723,-0.001406149007380009,0.001479918602854013,812818.0490268751,298.853271484375,-225.2120056152344,-214.9949645996094
2024-10-16 18:49:07.571 +0200,145,812818.058120875,0.00146484375,-0.026214599609375,-1.000244140625,812818.056877875,0.000565122754778713,-0.004207528196275234,-0.0008708536624908447,812818.0593048751,298.779052734375,-224.9831085205078,-214.9957427978516
2024-10-16 18:49:07.581 +0200,146,812818.068069875,0.0002899169921875,-0.0252685546875,-0.999847412109375,812818.0668268751,0.0008127967594191432,-0.001199754071421921,-0.001388838514685631,812818.0695808751,299.0298767089844,-224.8504791259766,-214.8375396728516
2024-10-16 18:49:07.592 +0200,147,812818.0780188751,0.00238037109375,-0.0240478515625,-0.9994049072265625,812818.0767758751,0.001051416038535535,-0.00111240241676569,-0.001038899179548025,812818.079858875,298.8603820800781,-224.9517669677734,-214.9337768554688
2024-10-16 18:49:07.601 +0200,148,812818.0879678751,0.0040435791015625,-0.0256500244140625,-0.9994049072265625,812818.086724875,0.0007030745036900043,-0.002418949268758297,-0.003299922915175557,812818.079858875,298.8603820800781,-224.9517669677734,-214.9337768554688
2024-10-16 18:49:07.611 +0200,149,812818.097916875,0.00335693359375,-0.0264892578125,-0.9992828369140625,812818.096673875,-0.0002676477015484124,-0.001384577481076121,-0.00140987744089216,812818.090136875,298.982666015625,-224.8089447021484,-214.8372039794922
2024-10-16 18:49:07.621 +0200,150,812818.107865875,0.001312255859375,-0.024658203125,-0.9988250732421875,812818.1066228751,-0.0002447445003781468,-0.001094026607461274,-0.001765409484505653,812818.1004158751,298.8414916992188,-224.9102172851562,-215.0796356201172
2024-10-16 18:49:07.631 +0200,151,812818.1178148751,0.002197265625,-0.02532958984375,-0.99896240234375,812818.1165718751,0.002431732369586825,-0.002828543307259679,-0.001174187753349543,812818.110693875,298.7703857421875,-224.9944610595703,-215.0140533447266
2024-10-16 18:49:07.641 +0200,152,812818.1277638751,0.002044677734375,-0.0251617431640625,-0.9990997314453125,812818.126520875,0.0007033408619463444,-0.003342000767588615,-0.001979527529329062,812818.120972875,298.8671875,-225.0638580322266,-214.91943359375
2024-10-16 18:49:07.651 +0200,153,812818.137712875,0.0001678466796875,-0.0236968994140625,-0.99908447265625,812818.136469875,0.001882322249002755,-0.001060737064108253,-0.002226402750238776,812818.1312508751,298.8857727050781,-225.1113128662109,-214.7643127441406
2024-10-16 18:49:07.664 +0200,154,812818.147661875,3.0517578125e-05,-0.024658203125,-0.997711181640625,812818.1464188751,0.0004069310089107603,-0.001598429284058511,-0.0009776464430615306,812818.141529875,298.7158203125,-225.1124877929688,-215.0453186035156
2024-10-16 18:49:07.671 +0200,155,812818.1576108751,0.0003509521484375,-0.0260772705078125,-0.9992828369140625,812818.1563678751,0.002127599436789751,-0.00242081331089139,-0.00063383235828951,812818.151807875,298.9532775878906,-225.1259918212891,-215.0889892578125
2024-10-16 18:49:07.681 +0200,156,812818.1675598751,0.00103759765625,-0.0243682861328125,-0.9987945556640625,812818.166316875,0.0004852279380429536,-0.001200020429678261,-0.002693521091714501,812818.1620858751,298.8518981933594,-225.207763671875,-215.2213439941406
2024-10-16 18:49:07.691 +0200,157,812818.177508875,0.00091552734375,-0.0263519287109375,-0.9994964599609375,812818.176265875,-0.0009121326729655266,-0.003343066200613976,0.0001115864506573416,812818.1723638751,298.8944702148438,-225.110107421875,-214.7022705078125
2024-10-16 18:49:07.701 +0200,158,812818.187457875,0.000213623046875,-0.0273895263671875,-0.9995269775390625,812818.1862148751,0.002455168170854449,-0.003134008031338453,-0.001690574688836932,812818.182641875,298.8353576660156,-225.2956390380859,-215.2404022216797
2024-10-16 18:49:07.711 +0200,159,812818.1974068751,0.0007476806640625,-0.0266571044921875,-1.001068115234375,812818.1961638751,0.002400839701294899,-0.0005352954030968249,-0.0003475425182841718,812818.192919875,298.90380859375,-225.2269287109375,-214.9879302978516
2024-10-16 18:49:07.728 +0200,160,812818.2073558751,0.0023956298828125,-0.026611328125,-0.9989166259765625,812818.206112875,0.002208293182775378,-0.002993392990902066,-0.00205249828286469,812818.2031978751,298.7641906738281,-225.3164978027344,-215.2285461425781
2024-10-16 18:49:07.731 +0200,161,812818.217304875,0.0013427734375,-0.0258636474609375,-0.9987945556640625,812818.216061875,-7.0307454734575e-05,-0.004828843753784895,-0.001130778226070106,812818.2134758751,298.8839111328125,-225.2461090087891,-214.998779296875
2024-10-16 18:49:07.741 +0200,162,812818.227253875,0.0018768310546875,-0.02337646484375,-0.9993896484375,812818.2260108751,0.004022172186523676,-0.002628273563459516,-0.001731587341055274,812818.223753875,299.05029296875,-225.2100982666016,-215.1317443847656
2024-10-16 18:49:07.751 +0200,163,812818.2372038751,0.0027008056640625,-0.022979736328125,-0.9991455078125,812818.2359608751,-0.0007715177489444613,-0.002209624741226435,0.001467401743866503,812818.234030875,298.8427734375,-225.1595458984375,-215.10498046875
2024-10-16 18:49:07.761 +0200,164,812818.2471528751,0.003021240234375,-0.022674560546875,-0.9994049072265625,812818.245909875,0.0002729740226641297,-0.002096174051985145,-0.002277002669870853,812818.2443078751,298.7908325195312,-225.2056732177734,-215.3177795410156
2024-10-16 18:49:07.770 +0200,165,812818.257101875,0.0020751953125,-0.0245208740234375,-0.998992919921875,812818.255858875,0.001046089688315988,-0.002031991956755519,-0.0007073355955071747,812818.2545848751,298.7449340820312,-225.2322540283203,-214.7674865722656
2024-10-16 18:49:07.784 +0200,166,812818.267050875,0.0003814697265625,-0.024200439453125,-0.9998779296875,812818.2658078751,0.001906823366880417,-0.001435976475477219,-0.002865827642381191,812818.2648628751,298.6526489257812,-225.2388610839844,-215.2789154052734
2024-10-16 18:49:07.790 +0200,167,812818.2769998751,0.0023040771484375,-0.024932861328125,-1.000640869140625,812818.2757568751,-0.0009861685102805495,-0.001163535052910447,-0.00227433955296874,812818.275139875,298.9911499023438,-225.1022338867188,-215.3697052001953
2024-10-16 18:49:07.800 +0200,168,812818.2869488751,0.000701904296875,-0.025177001953125,-0.998046875,812818.285705875,2.636529461597092e-05,0.0001573928166180849,-0.001442368025891483,812818.285416875,298.9448547363281,-225.0987701416016,-215.1795196533203
2024-10-16 18:49:07.810 +0200,169,812818.296897875,0.0008544921875,-0.0258636474609375,-0.9989013671875,812818.295654875,0.0002434129273751751,-0.001603755634278059,-0.001075384439900517,812818.2956938751,298.8623657226562,-225.1000061035156,-215.2054443359375
2024-10-16 18:49:07.820 +0200,170,812818.306846875,0.0024871826171875,-0.02557373046875,-0.9978790283203125,812818.3056038751,0.004712996073067188,-0.003446396673098207,-0.002096174051985145,812818.3059718751,298.7833862304688,-225.30517578125,-215.018310546875
2024-10-16 18:49:07.830 +0200,171,812818.3167958751,0.0023651123046875,-0.0267486572265625,-0.999298095703125,812818.3155528751,0.00183784740511328,-0.003690076060593128,-0.0008780442294664681,812818.316249875,298.8464660644531,-225.1104583740234,-215.0808258056641
2024-10-16 18:49:07.844 +0200,172,812818.3267448751,0.0016326904296875,-0.0253143310546875,-1.000076293945312,812818.325501875,0.000598145998083055,-0.003070624778047204,0.00125514785759151,812818.326527875,298.9185791015625,-225.2120971679688,-215.2422485351562
2024-10-16 18:49:07.850 +0200,173,812818.336693875,0.003082275390625,-0.0248260498046875,-0.999755859375,812818.3354508751,0.002693787449970841,-0.003045324701815844,-0.0007776430575177073,812818.3368058751,298.771484375,-225.2103271484375,-214.8708801269531
2024-10-16 18:49:07.860 +0200,174,812818.346642875,0.0017852783203125,-0.02520751953125,-0.9972381591796875,812818.3453998751,7.0307454734575e-05,-0.001519067096523941,-0.001195493037812412,812818.3470848751,299.0546875,-225.0741271972656,-214.9902496337891
2024-10-16 18:49:07.870 +0200,175,812818.3565918751,0.0033721923828125,-0.02362060546875,-0.9995269775390625,812818.355348875,-0.0002079928817693144,-0.002184857381507754,-0.00173744629137218,812818.357362875,298.6136474609375,-225.1988220214844,-214.8487854003906
2024-10-16 18:49:07.880 +0200,176,812818.3665408751,0.00274658203125,-0.0238494873046875,-0.9984283447265625,812818.365297875,0.0009198558400385082,-0.003366502001881599,0.001345695345662534,812818.3676428751,298.9820251464844,-225.1124725341797,-214.9889984130859
2024-10-16 18:49:07.890 +0200,177,812818.376489875,0.003082275390625,-0.0230712890625,-0.999176025390625,812818.3752468751,0.000791491474956274,-0.001679123030044138,-0.002521480899304152,812818.3779208751,298.7766723632812,-225.1486206054688,-214.9565582275391
2024-10-16 18:49:07.900 +0200,178,812818.386438875,0.001556396484375,-0.02301025390625,-0.9984893798828125,812818.3851958751,0.001074851839803159,-0.001971005462110043,-0.003003779333084822,812818.388199875,298.92626953125,-225.1836395263672,-214.9886474609375
2024-10-16 18:49:07.911 +0200,179,812818.3963878751,0.002288818359375,-0.0251312255859375,-0.999969482421875,812818.395144875,-0.0003832288784906268,-0.001345695345662534,-0.001454352284781635,812818.388199875,298.92626953125,-225.1836395263672,-214.9886474609375
2024-10-16 18:49:07.920 +0200,180,812818.4063368751,0.0023193359375,-0.0255889892578125,-1.000503540039062,812818.405093875,0.001006408594548702,-0.0004490089486353099,-0.00230842805467546,812818.398477875,298.7642211914062,-225.1204986572266,-215.0165252685547
2024-10-16 18:49:07.930 +0200,181,812818.416285875,0.00238037109375,-0.02618408203125,-0.998992919921875,812818.4150428751,0.0006969492533244193,0.0008455536444671452,0.0003384877636563033,812818.4087568751,299.1807861328125,-225.0901336669922,-215.2972412109375
2024-10-16 18:49:07.940 +0200,182,812818.4262348751,0.0008697509765625,-0.0277252197265625,-0.9987030029296875,812818.4249918751,0.0003731088654603809,-0.003226952161639929,-0.002628539921715856,812818.419035875,298.86083984375,-225.1062316894531,-215.0743255615234
2024-10-16 18:49:07.950 +0200,183,812818.4361838751,6.103515625e-05,-0.026458740234375,-0.999176025390625,812818.434940875,0.00245090713724494,-0.001533181872218847,-0.003146258415654302,812818.429313875,298.8426513671875,-225.0633850097656,-214.9741821289062
2024-10-16 18:49:07.963 +0200,184,812818.446132875,0.0006866455078125,-0.0262908935546875,-0.9989471435546875,812818.444889875,-0.000931041082367301,-0.0003800330741796643,-0.0009880327852442861,812818.4395918751,298.9119567871094,-225.0006256103516,-215.0874328613281
2024-10-16 18:49:07.969 +0200,185,812818.456081875,0.00341796875,-0.0255889892578125,-1.000259399414062,812818.4548388751,-2.077265708066989e-05,-0.001226119347847998,-0.0009976201690733433,812818.4498708751,298.8570556640625,-224.9603271484375,-214.7141418457031
2024-10-16 18:49:07.979 +0200,186,812818.4660308751,0.00360107421875,-0.0253143310546875,-0.9984588623046875,812818.4647878751,0.0002442118711769581,-0.002936934120953083,-0.001547829248011112,812818.460148875,298.9493103027344,-225.0838470458984,-215.1248321533203
2024-10-16 18:49:07.989 +0200,187,812818.4759798751,0.002197265625,-0.0252532958984375,-0.999755859375,812818.474736875,0.002755306428298354,-0.002850647550076246,-5.885586142539978e-05,812818.4704268751,299.0313110351562,-225.0069732666016,-215.1221618652344
2024-10-16 18:49:07.999 +0200,188,812818.485928875,0.001800537109375,-0.023223876953125,-1.000335693359375,812818.484685875,0.001975266495719552,-0.0006354302167892456,-0.001952363410964608,812818.4807058751,298.8971557617188,-225.1352691650391,-215.34130859375
2024-10-16 18:49:08.009 +0200,189,812818.495877875,0.00140380859375,-0.0250244140625,-0.9985809326171875,812818.4946348751,0.001204547705128789,-0.00259285350330174,-0.0005976133397780359,812818.490984875,299.0488586425781,-225.2024078369141,-215.124267578125
2024-10-16 18:49:08.019 +0200,190,812818.5058268751,0.0034027099609375,-0.025360107421875,-0.9996795654296875,812818.5045838751,0.0006018743733875453,-0.001062334980815649,-0.003208842827007174,812818.501262875,299.0502014160156,-225.0744781494141,-215.1664276123047
2024-10-16 18:49:08.029 +0200,191,812818.5157758751,0.003143310546875,-0.025115966796875,-0.9990234375,812818.514532875,-0.001197889796458185,-6.178533658385277e-05,0.001198688754811883,812818.5115418751,298.9766845703125,-225.2122802734375,-215.0177154541016
2024-10-16 18:49:08.039 +0200,192,812818.525724875,0.0025787353515625,-0.0238037109375,-1.000534057617188,812818.524481875,0.000996821210719645,-0.003179814200848341,-0.0007299724384211004,812818.521819875,298.7378540039062,-225.1435394287109,-215.0837097167969
2024-10-16 18:49:08.049 +0200,193,812818.535673875,0.0021514892578125,-0.0264739990234375,-0.999298095703125,812818.5344308751,0.0003637878107838333,-0.004269846249371767,-0.002654106356203556,812818.532098875,298.8779602050781,-225.0189819335938,-214.8596496582031
2024-10-16 18:49:08.059 +0200,194,812818.5456228751,0.001220703125,-0.026519775390625,-0.99932861328125,812818.5443798751,-0.0004817658336833119,4.181162876193412e-05,0.0003107908996753395,812818.5423768751,298.93994140625,-225.0249786376953,-215.1392517089844
2024-10-16 18:49:08.069 +0200,195,812818.5555718751,0.0024566650390625,-0.02655029296875,-1.000106811523438,812818.554328875,0.0008258462767116725,-0.002291117561981082,8.655273268232122e-05,812818.5526548751,298.943115234375,-224.9179229736328,-214.8830871582031
2024-10-16 18:49:08.084 +0200,196,812818.565520875,0.00311279296875,-0.0255889892578125,-0.99810791015625,812818.564277875,0.001427987008355558,-0.001874865381978452,-0.002140116179361939,812818.562933875,299.0952453613281,-224.9420928955078,-214.9004974365234
2024-10-16 18:49:08.089 +0200,197,812818.575470875,0.0007171630859375,-0.0267486572265625,-0.9982147216796875,812818.5742278751,-7.723167072981596e-06,-0.002125468803569674,-0.001147556118667126,812818.573211875,298.90673828125,-224.9786682128906,-214.8700103759766
2024-10-16 18:49:08.099 +0200,198,812818.5854188751,0.00238037109375,-0.0250396728515625,-0.997772216796875,812818.5841758751,0.0006660565850324929,-0.001520132296718657,-0.0003757720405701548,812818.5834908751,299.0313110351562,-224.892578125,-214.9686431884766
2024-10-16 18:49:08.109 +0200,199,812818.5953688751,0.00323486328125,-0.0262908935546875,-0.997833251953125,812818.594125875,-8.841694943839684e-05,-0.002418150193989277,-0.0003416835679672658,812818.593768875,298.8671264648438,-225.058349609375,-214.8173370361328
2024-10-16 18:49:08.119 +0200,200,812818.605317875,0.00250244140625,-0.023956298828125,-0.9993438720703125,812818.604074875,0.001754756784066558,-0.0006982808117754757,-0.001651159836910665,812818.604046875,298.8887939453125,-225.1196441650391,-214.8875122070312
2024-10-16 18:49:08.129 +0200,201,812818.615266875,0.0008544921875,-0.0231781005859375,-0.999053955078125,812818.6140238751,-0.001518001779913902,-0.002655704272910953,-7.723167072981596e-05,812818.6143248751,299.1964721679688,-224.8885955810547,-214.7953948974609
2024-10-16 18:49:08.145 +0200,202,812818.6252158751,0.0008392333984375,-0.02349853515625,-0.9977569580078125,812818.6239728751,0.0004852279380429536,-0.001447428017854691,-0.00114169716835022,812818.6246028751,299.0615234375,-225.1240081787109,-214.9616394042969
2024-10-16 18:49:08.148 +0200,203,812818.6351648751,0.0018768310546875,-0.0228729248046875,-0.998687744140625,812818.633921875,-0.0007174555794335902,-0.002030394040048122,-0.0004687163454946131,812818.634882875,298.8959045410156,-225.1054534912109,-214.9353942871094
2024-10-16 18:49:08.158 +0200,204,812818.645113875,0.0028533935546875,-0.0254058837890625,-0.9991912841796875,812818.643870875,0.0002197107824031264,-0.002011485630646348,-0.002175003755837679,812818.6451608751,298.9843139648438,-225.0171203613281,-215.24609375
2024-10-16 18:49:08.168 +0200,205,812818.655062875,-0.0005340576171875,-0.0256195068359375,-0.999237060546875,812818.6538198751,0.001101483474485576,-0.002030926523730159,-0.001550758723169565,812818.6554388751,298.9976196289062,-225.1320190429688,-215.0722503662109
2024-10-16 18:49:08.178 +0200,206,812818.6650118751,0.0012969970703125,-0.0271759033203125,-0.9989013671875,812818.6637688751,0.004275705199688673,-0.004373709205538034,0.0008958873804658651,812818.665717875,299.0465087890625,-224.9669952392578,-214.9370727539062
2024-10-16 18:49:08.188 +0200,207,812818.6749608751,0.0019378662109375,-0.0264739990234375,-0.99859619140625,812818.673717875,0.001083373907022178,-0.0019217369845137,0.001041562296450138,812818.675995875,298.96435546875,-225.0421905517578,-214.7887115478516
2024-10-16 18:49:08.198 +0200,208,812818.684909875,0.002532958984375,-0.0259552001953125,-0.99859619140625,812818.683666875,-0.001126783434301615,-0.002212287858128548,-0.00262321368791163,812818.6862738751,299.0344848632812,-224.9846038818359,-214.7749328613281
2024-10-16 18:49:08.212 +0200,209,812818.694858875,0.00115966796875,-0.02667236328125,-0.999359130859375,812818.683666875,-0.001126783434301615,-0.002212287858128548,-0.00262321368791163,812818.6965518751,298.816650390625,-224.9468841552734,-214.9677886962891
2024-10-16 18:49:08.218 +0200,210,812818.7048078751,0.001983642578125,-0.024871826171875,-0.999237060546875,812818.7035648751,0.001211738330312073,-0.002394714392721653,0.0003097256412729621,812818.6965518751,298.816650390625,-224.9468841552734,-214.9677886962891
2024-10-16 18:49:08.228 +0200,211,812818.7147568751,0.00128173828125,-0.0240631103515625,-0.9987640380859375,812818.713513875,0.002525741932913661,-0.0009704558760859072,-0.0007563377148471773,812818.706829875,298.8944396972656,-225.1171112060547,-214.7418975830078
2024-10-16 18:49:08.238 +0200,212,812818.724705875,0.0029449462890625,-0.0254669189453125,-0.99822998046875,812818.723462875,0.002634132513776422,-0.003561445279046893,0.000275370868621394,812818.717108875,299.1337890625,-224.9091033935547,-214.8700408935547
2024-10-16 18:49:08.248 +0200,213,812818.734654875,0.001983642578125,-0.024139404296875,-0.99884033203125,812818.7334118751,0.0008852347382344306,-0.002099902601912618,-0.001613343018107116,812818.7273878751,298.8735961914062,-225.0625457763672,-214.8816986083984
2024-10-16 18:49:08.263 +0200,214,812818.7446038751,-9.1552734375e-05,-0.023406982421875,-0.9999542236328125,812818.7433608751,0.002293247962370515,-0.002094043651595712,-0.0002849582233466208,812818.737665875,298.802734375,-225.1360626220703,-214.9788360595703
2024-10-16 18:49:08.268 +0200,215,812818.7545528751,0.00189208984375,-0.024017333984375,-0.99932861328125,812818.753309875,-0.0006756439688615501,-0.001674861996434629,9.560748003423214e-05,812818.747944875,298.9898681640625,-224.9444580078125,-214.7770233154297
2024-10-16 18:49:08.278 +0200,216,812818.764501875,0.004180908203125,-0.023651123046875,-0.9976806640625,812818.763258875,-0.0003968109958805144,0.0001379517489112914,-0.001177649828605354,812818.7582238751,298.9457397460938,-225.0267028808594,-215.0854949951172
2024-10-16 18:49:08.288 +0200,217,812818.774450875,0.00384521484375,-0.025115966796875,-0.9994659423828125,812818.7732078751,0.002276736311614513,-0.002210157457739115,-0.001017061178572476,812818.7685018751,299.0538330078125,-225.1470336914062,-214.9780883789062
2024-10-16 18:49:08.298 +0200,218,812818.7843998751,0.002593994140625,-0.024658203125,-0.9989776611328125,812818.7831568751,0.0004801679460797459,-0.0006908240029588342,0.0003504719934426248,812818.778780875,298.852294921875,-225.126220703125,-215.2395935058594
2024-10-16 18:49:08.308 +0200,219,812818.7943488751,0.002777099609375,-0.025909423828125,-0.998870849609375,812818.793105875,0.001516403863206506,-0.002273007994517684,-0.001787247369065881,812818.7890588751,298.9529113769531,-225.1035003662109,-214.7572021484375
2024-10-16 18:49:08.318 +0200,220,812818.804297875,0.00262451171875,-0.0257568359375,-1.000091552734375,812818.803054875,-0.0003930825623683631,-0.001438106992281973,-0.002703641075640917,812818.7993378751,299.061279296875,-224.9423522949219,-214.9601287841797
2024-10-16 18:49:08.328 +0200,221,812818.814246875,0.0016326904296875,-0.0257415771484375,-0.9994964599609375,812818.8130038751,0.003255980787798762,-0.002323075430467725,-0.003506051609292626,812818.809615875,298.7000732421875,-225.0976715087891,-214.8003997802734
2024-10-16 18:49:08.338 +0200,222,812818.8241958751,0.0017242431640625,-0.0270843505859375,-1.000564575195312,812818.8229528751,-0.001264735241420567,-0.002316151279956102,-0.001937183318659663,812818.819893875,298.8711547851562,-225.1819763183594,-215.3173980712891
2024-10-16 18:49:08.348 +0200,223,812818.8341448751,0.0008697509765625,-0.02508544921875,-0.9986419677734375,812818.832901875,-0.0001557949290145189,-0.0005406216951087117,-0.0003901530872099102,812818.8301718751,298.6935119628906,-225.1329498291016,-214.6823272705078
2024-10-16 18:49:08.357 +0200,224,812818.844093875,0.00128173828125,-0.024261474609375,-0.999664306640625,812818.842850875,0.002642920939251781,-0.00115394766908139,-0.002785400254651904,812818.8404498751,298.8596801757812,-225.0841674804688,-214.9322814941406
2024-10-16 18:49:08.367 +0200,225,812818.854042875,0.0010986328125,-0.024200439453125,-0.999481201171875,812818.8527998751,-0.000827177835162729,-0.00166607357095927,-0.0002133192028850317,812818.850727875,299.0578002929688,-224.9545288085938,-214.7329559326172
2024-10-16 18:49:08.384 +0200,226,812818.8639918751,0.001312255859375,-0.023651123046875,-0.99932861328125,812818.862748875,0.0009813748765736818,-0.002708168467506766,-0.003834951901808381,812818.861005875,298.8102416992188,-225.0903015136719,-214.8431854248047
2024-10-16 18:49:08.387 +0200,227,812818.8739408751,0.002105712890625,-0.023834228515625,-1.000076293945312,812818.872697875,0.0005187837523408234,-0.00207779835909605,0.0001611212501302361,812818.8712848751,298.8109741210938,-225.1040344238281,-215.0284271240234
2024-10-16 18:49:08.397 +0200,228,812818.883889875,0.0016326904296875,-0.0237579345703125,-0.999420166015625,812818.8826468751,0.001742772641591728,-0.002045041415840387,-0.001558215590193868,812818.881563875,298.7837829589844,-225.1269989013672,-215.0860595703125
2024-10-16 18:49:08.407 +0200,229,812818.893838875,0.00067138671875,-0.024383544921875,-1.000106811523438,812818.8925958751,0.00149856077041477,-0.001042627613060176,-0.001260474091395736,812818.8918438751,298.9102783203125,-225.1368560791016,-214.7261505126953
2024-10-16 18:49:08.417 +0200,230,812818.9037878751,0.0017242431640625,-0.026458740234375,-0.9998321533203125,812818.902544875,0.001376055297441781,-0.002977414056658745,-0.0006993460701778531,812818.9021218751,298.8707885742188,-225.1335601806641,-214.7413177490234
2024-10-16 18:49:08.427 +0200,231,812818.9137368751,-0.00018310546875,-0.0254669189453125,-0.9990386962890625,812818.912493875,0.001533181872218847,0.0006740460521541536,-0.0008346347021870315,812818.912400875,298.8073120117188,-225.1282501220703,-214.6890716552734
2024-10-16 18:49:08.437 +0200,232,812818.923685875,0.0028839111328125,-0.0263671875,-0.9990234375,812818.9224428751,0.0001552622852614149,-0.002907106652855873,-0.0006524744676426053,812818.922679875,298.9053344726562,-225.2785186767578,-215.0814208984375
2024-10-16 18:49:08.447 +0200,233,812818.933635875,0.0022735595703125,-0.0270843505859375,-0.99859619140625,812818.9323928751,0.003127083647996187,0.0003467435599304736,-0.0009944243356585503,812818.9329588751,298.8234252929688,-225.2834777832031,-214.7292327880859
2024-10-16 18:49:08.457 +0200,234,812818.9435848751,0.0022430419921875,-0.0256805419921875,-0.99932861328125,812818.9423418751,-0.0009241168736480176,-0.003491936717182398,-0.0009289105655625463,812818.943237875,299.0208740234375,-224.9423522949219,-214.8019104003906
2024-10-16 18:49:08.467 +0200,235,812818.9535338751,0.001220703125,-0.0248870849609375,-1.000167846679688,812818.952290875,0.001261273049749434,-0.0013512879377231,-0.002474609296768904,812818.953516875,298.9341735839844,-225.1421508789062,-214.7599182128906
2024-10-16 18:49:08.477 +0200,236,812818.963482875,0.003021240234375,-0.025970458984375,-0.999237060546875,812818.962239875,0.0006554039428010583,-0.002885268768295646,0.001230913097970188,812818.9637968751,299.1675109863281,-225.0062103271484,-215.0308990478516
2024-10-16 18:49:08.487 +0200,237,812818.973431875,0.004241943359375,-0.02593994140625,-0.9985198974609375,812818.9721888751,6.844323797849938e-05,-0.0006833671359345317,-0.0006053365068510175,812818.974076875,298.971435546875,-225.0761413574219,-215.0230712890625
2024-10-16 18:49:08.504 +0200,238,812818.9833808751,0.001495361328125,-0.0238800048828125,-1.0006103515625,812818.982137875,0.002355033298954368,-0.001957689644768834,-0.001174986711703241,812818.9843548751,298.9107666015625,-225.0494995117188,-214.7051544189453
2024-10-16 18:49:08.507 +0200,239,812818.9933298751,0.00152587890625,-0.022705078125,-1.00079345703125,812818.992086875,0.002151567721739411,-0.002199504757300019,0.0003486077766865492,812818.9946328751,298.9620361328125,-225.0758819580078,-214.8381195068359
2024-10-16 18:49:08.517 +0200,240,812819.0032797917,0.0019683837890625,-0.0243682861328125,-0.9989166259765625,812819.0020367918,-0.0005273058777675033,-0.001064998097717762,-0.001283377292566001,812819.0049117918,298.9709777832031,-225.0572814941406,-214.6985931396484
2024-10-16 18:49:08.526 +0200,241,812819.0132287918,0.0023193359375,-0.0240020751953125,-0.998260498046875,812819.0119857917,-0.001184041379019618,0.000999750685878098,-0.002424009144306183,812819.0049117918,298.9709777832031,-225.0572814941406,-214.6985931396484
2024-10-16 18:49:08.537 +0200,242,812819.0231777917,0.0024261474609375,-0.024627685546875,-0.9993133544921875,812819.0219347917,0.001014930661767721,-0.000336090917699039,-0.002002430846914649,812819.0151907917,299.0264282226562,-224.9832153320312,-214.7460327148438
2024-10-16 18:49:08.546 +0200,243,812819.0331267917,0.000335693359375,-0.0257568359375,-1.000778198242188,812819.0318837917,0.0008649947121739388,-0.00216035614721477,-0.0006596649764105678,812819.0254687917,298.9249877929688,-225.1078491210938,-214.8996429443359
2024-10-16 18:49:08.563 +0200,244,812819.0430757917,0.0034942626953125,-0.0262451171875,-0.9999542236328125,812819.0418327918,0.001233576214872301,-0.001090830774046481,-0.001673530437983572,812819.0357477918,298.7247314453125,-225.0832061767578,-214.6661987304688
2024-10-16 18:49:08.566 +0200,245,812819.0530247918,0.002532958984375,-0.02703857421875,-0.998779296875,812819.0517817917,0.0003472761891316622,-0.003183809109032154,-0.00307621737010777,812819.0460257917,298.9666442871094,-225.1394348144531,-214.7934417724609
2024-10-16 18:49:08.577 +0200,246,812819.0629737917,0.00067138671875,-0.025787353515625,-0.9991302490234375,812819.0617307917,0.002427737694233656,-0.002034655073657632,-0.00253985682502389,812819.0563037917,298.9307250976562,-225.1438140869141,-214.81103515625
2024-10-16 18:49:08.586 +0200,247,812819.0729227917,0.0027008056640625,-0.024688720703125,-0.9991302490234375,812819.0716797917,0.0008679241873323917,-0.00145621644333005,-0.002548378892242908,812819.0665827917,299.1300659179688,-224.7604064941406,-214.9347381591797
2024-10-16 18:49:08.596 +0200,248,812819.0828717917,0.001678466796875,-0.024169921875,-0.99908447265625,812819.0816287918,0.001684449380263686,-9.933590627042577e-05,0.0001794970594346523,812819.0768607918,299.1129455566406,-225.0405120849609,-215.1183471679688
2024-10-16 18:49:08.606 +0200,249,812819.0928207918,0.001708984375,-0.0251312255859375,-1.000244140625,812819.0915777917,0.0009856359101831913,-0.002625344088301063,-0.001089499215595424,812819.0871397917,299.091064453125,-224.8342590332031,-214.8780975341797
2024-10-16 18:49:08.617 +0200,250,812819.1027697917,0.00146484375,-0.024658203125,-0.99847412109375,812819.1015267917,0.001366467913612723,-0.001413872232660651,-0.001694036764092743,812819.0974187917,298.9779052734375,-225.0520935058594,-214.8980102539062
2024-10-16 18:49:08.628 +0200,251,812819.1127187917,0.0008544921875,-0.024139404296875,-0.9981842041015625,812819.1114757917,0.003085272153839469,-0.002344646956771612,-6.844323797849938e-05,812819.1076977918,299.1210632324219,-225.0491943359375,-214.9234313964844
2024-10-16 18:49:08.636 +0200,252,812819.1226677917,0.0013885498046875,-0.0245361328125,-1.000045776367188,812819.1214247918,-0.0006479470757767558,-0.003358778776600957,-0.001607750309631228,812819.1179767917,298.9207458496094,-224.90380859375,-215.1346282958984
2024-10-16 18:49:08.646 +0200,253,812819.1326167918,0.001068115234375,-0.0258331298828125,-0.9989166259765625,812819.1313737917,0.001471929135732353,-0.002288188086822629,-0.00313027948141098,812819.1282557917,298.9754638671875,-225.0697631835938,-214.6668853759766
2024-10-16 18:49:08.656 +0200,254,812819.1425657917,0.0026092529296875,-0.0257415771484375,-0.996795654296875,812819.1413227917,0.0003115898580290377,0.0001424791116733104,-0.003144926857203245,812819.1385347918,298.8664245605469,-225.171630859375,-215.1507720947266
2024-10-16 18:49:08.666 +0200,255,812819.1525147917,0.0025177001953125,-0.02496337890625,-0.99761962890625,812819.1512717917,0.002275404753163457,-0.001622930401936173,-0.001598695642314851,812819.1488137917,298.8250732421875,-224.9940795898438,-214.9071960449219
2024-10-16 18:49:08.683 +0200,256,812819.1624637917,-0.0001373291015625,-0.025115966796875,-1.001419067382812,812819.1612207917,0.00292867817915976,-0.0006985471700318158,0.001051149680279195,812819.1590937917,299.0411376953125,-224.8674621582031,-215.1398315429688
2024-10-16 18:49:08.686 +0200,257,812819.1724127918,0.001312255859375,-0.026031494140625,-0.9995574951171875,812819.1711697917,0.001155811944045126,4.181162876193412e-05,-0.002191781532019377,812819.1693727918,299.1178588867188,-224.8849182128906,-214.7881774902344
2024-10-16 18:49:08.696 +0200,258,812819.1823617917,0.0018768310546875,-0.02490234375,-0.9992218017578125,812819.1811187917,0.002449841937050223,-0.004211523104459047,-0.0006407565670087934,812819.1796517917,298.974853515625,-225.0199890136719,-215.0959320068359
2024-10-16 18:49:08.706 +0200,259,812819.1923107917,0.0030975341796875,-0.0252532958984375,-0.9987030029296875,812819.1910677917,-5.352953667170368e-05,-0.001914546475745738,-0.0008207862265408039,812819.1899317917,298.8974609375,-225.0121917724609,-214.8712768554688
2024-10-16 18:49:08.716 +0200,260,812819.2022597917,0.0043182373046875,-0.0238494873046875,-0.99871826171875,812819.2010167917,0.001014131703414023,-0.001335575245320797,-0.002334260614588857,812819.2002097918,298.8718872070312,-224.9576721191406,-215.0847320556641
2024-10-16 18:49:08.725 +0200,261,812819.2122087918,0.003814697265625,-0.022552490234375,-0.9998321533203125,812819.2109657917,0.0002463423879817128,-0.002167813014239073,0.001509213354438543,812819.2104897917,298.9360046386719,-224.9183349609375,-214.8662109375
2024-10-16 18:49:08.737 +0200,262,812819.2221577917,0.0013580322265625,-0.0245361328125,-0.9995574951171875,812819.2209147917,0.001133707701228559,-0.001979793887585402,-0.001640240894630551,812819.2207667917,298.96142578125,-225.0408325195312,-214.9290466308594
2024-10-16 18:49:08.746 +0200,263,812819.2321067917,0.000701904296875,-0.0246124267578125,-0.999237060546875,812819.2308637918,-0.0005803027888759971,-0.003054911969229579,0.0006527407676912844,812819.2310447918,298.9315490722656,-224.95166015625,-214.659912109375
2024-10-16 18:49:08.755 +0200,264,812819.2420567917,0.0032196044921875,-0.0239715576171875,-0.9984588623046875,812819.2408137918,-2.157160452043172e-05,-0.003044791985303164,-0.0009443568997085094,812819.2413217917,298.95849609375,-224.9054565429688,-214.9635009765625
2024-10-16 18:49:08.765 +0200,265,812819.2520057918,0.0011749267578125,-0.0242919921875,-1.000579833984375,812819.2507627917,0.002394980750977993,-0.001163268811069429,-0.001334776286967099,812819.2516007917,298.8391723632812,-225.1175231933594,-214.7252655029297
2024-10-16 18:49:08.775 +0200,266,812819.2619547917,-0.0001220703125,-0.025909423828125,-0.9979705810546875,812819.2607117917,0.00120827613864094,-0.003435744205489755,-0.00219071633182466,812819.2618787917,298.8863525390625,-225.0679779052734,-214.7669372558594
2024-10-16 18:49:08.785 +0200,267,812819.2719037917,0.001861572265625,-0.0254669189453125,-0.9986419677734375,812819.2706607917,0.0004492752777878195,-0.0007595335482619703,0.000292947719572112,812819.2721567918,298.8424072265625,-225.1284942626953,-214.9107513427734
2024-10-16 18:49:08.804 +0200,268,812819.2818527917,0.002197265625,-0.024749755859375,-1.000946044921875,812819.2806097917,0.001010137028060853,-0.001604820834472775,-0.0005736448802053928,812819.2824337917,298.8871765136719,-225.1611785888672,-215.1002349853516
2024-10-16 18:49:08.805 +0200,269,812819.2918017918,0.002227783203125,-0.025970458984375,-0.9996337890625,812819.2905587917,0.001336640561930835,-0.002154231071472168,-0.0006274407496675849,812819.2927117917,298.7515258789062,-225.0690002441406,-214.8526611328125
2024-10-16 18:49:08.815 +0200,270,812819.3017507917,0.002471923828125,-0.0258331298828125,-1.000350952148438,812819.3005077917,0.0006064017652533948,-0.002177400514483452,-0.002649578964337707,812819.3029907917,298.8826599121094,-225.1476898193359,-215.1200256347656
2024-10-16 18:49:08.825 +0200,271,812819.3116997917,0.0025482177734375,-0.0256805419921875,-0.999114990234375,812819.3104567917,-0.0003760383406188339,-0.002076200442388654,-0.0003715109778568149,812819.3132687918,298.8020629882812,-225.2042694091797,-214.8431854248047
2024-10-16 18:49:08.835 +0200,272,812819.3216487917,0.004608154296875,-0.0242767333984375,-0.9996185302734375,812819.3204057917,0.001945705502294004,0.000806138850748539,-0.002960902405902743,812819.3235477917,298.969482421875,-225.04150390625,-214.9346008300781
2024-10-16 18:49:08.845 +0200,273,812819.3315977918,0.0012969970703125,-0.0244293212890625,-0.99884033203125,812819.3303547917,0.001315335277467966,-0.001335309003479779,-0.002458630362525582,812819.3235477917,298.969482421875,-225.04150390625,-214.9346008300781
2024-10-16 18:49:08.863 +0200,274,812819.3415467917,0.0023040771484375,-0.02362060546875,-1.000473022460938,812819.3403037917,-6.444849714171141e-05,-0.0005672533297911286,-0.002114549977704883,812819.3338257917,298.9649353027344,-225.1275177001953,-214.6027984619141
2024-10-16 18:49:08.865 +0200,275,812819.3514957917,0.001556396484375,-0.023193359375,-0.9987335205078125,812819.3502527918,0.001662345137447119,-0.003514840034767985,-0.001418399624526501,812819.3441037918,298.7783203125,-225.1437377929688,-214.7965240478516
2024-10-16 18:49:08.875 +0200,276,812819.3614447917,0.0024261474609375,-0.0244140625,-0.9976959228515625,812819.3602017917,0.000937166390940547,-0.0001661812566453591,-0.0004426173691172153,812819.3543817917,298.9364318847656,-224.9727478027344,-214.6884002685547
2024-10-16 18:49:08.885 +0200,277,812819.3713937917,0.0026702880859375,-0.0252838134765625,-0.99884033203125,812819.3701507917,0.0005779059720225632,-0.0005832322640344501,-0.001238369848579168,812819.3646597917,299.01806640625,-224.9402618408203,-214.9585723876953
2024-10-16 18:49:08.895 +0200,278,812819.3813427917,0.0010986328125,-0.0241546630859375,-0.9986572265625,812819.3800997917,0.0002655171556398273,-0.003602457931265235,-0.003441869281232357,812819.3749387917,298.7901000976562,-224.9865570068359,-214.9732818603516
2024-10-16 18:49:08.905 +0200,279,812819.3912917917,0.000762939453125,-0.024078369140625,-1.000289916992188,812819.3900487918,-0.000464188982732594,-0.00358754419721663,-0.0005046690348535776,812819.3852177918,298.9025268554688,-225.0223999023438,-214.9769592285156
2024-10-16 18:49:08.917 +0200,280,812819.4012407917,0.002288818359375,-0.0256500244140625,-0.999359130859375,812819.3999977917,0.002447977662086487,-0.001932656043209136,-0.0004024036461487412,812819.3954967917,298.8483276367188,-224.9647827148438,-214.7996520996094
2024-10-16 18:49:08.928 +0200,281,812819.4111897917,0.000579833984375,-0.0258941650390625,-0.998870849609375,812819.4099467917,0.002247974276542664,-0.003673830768093467,-0.002981142606586218,812819.4057747917,299.0945434570312,-224.9047241210938,-214.9079437255859
2024-10-16 18:49:08.934 +0200,282,812819.4211387917,0.002349853515625,-0.0244598388671875,-1.00018310546875,812819.4198957917,0.0001715075777610764,-0.002074868883937597,-0.001006408594548702,812819.4160537918,298.9240112304688,-224.9806671142578,-214.6722259521484
2024-10-16 18:49:08.944 +0200,283,812819.4310877917,0.002532958984375,-0.0252838134765625,-0.9994049072265625,812819.4298447918,0.001079645473510027,-0.003847202518954873,-0.003510046284645796,812819.4263337917,298.8930969238281,-224.8949890136719,-214.8848876953125
2024-10-16 18:49:08.954 +0200,284,812819.4410367918,0.003021240234375,-0.025909423828125,-1.000411987304688,812819.4397937917,0.0001342233153991401,-0.003527356777340174,-0.0007161240209825337,812819.4366127917,298.9586181640625,-225.0792694091797,-214.7262115478516
2024-10-16 18:49:08.964 +0200,285,812819.4509857917,0.00311279296875,-0.026123046875,-0.999755859375,812819.4497427917,0.002381132217124104,-0.002981941448524594,-0.002131860470399261,812819.4468927917,299.1580200195312,-224.9748077392578,-214.8326110839844
2024-10-16 18:49:08.984 +0200,286,812819.4609347917,0.00518798828125,-0.023956298828125,-0.999664306640625,812819.4596917917,0.0005960154230706394,-0.003644536016508937,-0.001680987305007875,812819.4571727917,298.8612670898438,-224.8495788574219,-214.5778961181641
2024-10-16 18:49:08.984 +0200,287,812819.4708837917,0.001922607421875,-0.0250396728515625,-1.000823974609375,812819.4696407918,0.0009419600828550756,-0.001318797352723777,-0.002126800362020731,812819.4674517917,299.0973510742188,-224.9192810058594,-214.6324615478516
2024-10-16 18:49:08.994 +0200,288,812819.4808327918,0.0023345947265625,-0.0242767333984375,-0.99951171875,812819.4795897917,-7.456851017195731e-05,-0.002295911079272628,-0.0007315703551284969,812819.4777317917,298.87158203125,-224.8603973388672,-214.8237457275391
2024-10-16 18:49:09.004 +0200,289,812819.4907817917,0.001312255859375,-0.0242462158203125,-0.99908447265625,812819.4895387917,-0.0001102548703784123,-0.004164917394518852,0.0006820355774834752,812819.4880107917,299.1157531738281,-225.0549163818359,-214.5962524414062
2024-10-16 18:49:09.014 +0200,290,812819.5007307917,0.0009765625,-0.0235443115234375,-0.998382568359375,812819.4994877917,-0.0006285060080699623,-0.00193478656001389,-0.003319097682833672,812819.4982897918,298.8928833007812,-224.8649139404297,-214.8198547363281
2024-10-16 18:49:09.024 +0200,291,812819.5106797917,0.0006866455078125,-0.024810791015625,-0.9985809326171875,812819.5094367918,0.002352902898564935,-0.00259418529458344,-0.0003579288604669273,812819.5085687917,299.19140625,-224.7806854248047,-214.6986846923828
2024-10-16 18:49:09.037 +0200,292,812819.5206287918,0,-0.0263519287109375,-0.9986572265625,812819.5193857917,0.0004801679460797459,-0.002114549977704883,-0.0007379619055427611,812819.5188467917,298.9649047851562,-224.8906097412109,-214.7499542236328
2024-10-16 18:49:09.044 +0200,293,812819.5305777917,0.0013580322265625,-0.0255279541015625,-0.9994354248046875,812819.5293347917,0.002489523030817509,-0.002091646660119295,-0.0008159925346262753,812819.5291257917,298.931396484375,-225.0940246582031,-214.6189117431641
2024-10-16 18:49:09.054 +0200,294,812819.5405267917,0.002593994140625,-0.024749755859375,-0.997894287109375,812819.5392837917,-0.001282045734114945,-0.001155811944045126,-0.0003880225704051554,812819.5394047917,299.0350341796875,-224.9795227050781,-214.8243713378906
2024-10-16 18:49:09.064 +0200,295,812819.5504757917,0.0008697509765625,-0.0256805419921875,-0.9992218017578125,812819.5492327918,0.002159290947020054,-0.001331846811808646,0.0005763080553151667,812819.5496847917,298.9359130859375,-225.0684661865234,-214.8276672363281
2024-10-16 18:49:09.074 +0200,296,812819.5604257918,0.0025177001953125,-0.025482177734375,-1,812819.5591827917,0.001427720650099218,-0.002850913908332586,-0.001008006511256099,812819.5599627917,298.9514465332031,-225.0646362304688,-214.7976989746094
2024-10-16 18:49:09.084 +0200,297,812819.5703747917,0.0028076171875,-0.0255584716796875,-0.9991607666015625,812819.5691317917,-0.0006468818173743784,-0.001531583955511451,-8.122641156660393e-05,812819.5702397918,298.9519348144531,-224.9179840087891,-214.4479827880859
2024-10-16 18:49:09.094 +0200,298,812819.5803237917,0.00274658203125,-0.023193359375,-0.999420166015625,812819.5790807917,0.001370196347124875,-0.003311108099296689,-0.001529986038804054,812819.5805187917,298.9043884277344,-225.0081787109375,-214.9735260009766
2024-10-16 18:49:09.104 +0200,299,812819.5902727917,0.0032958984375,-0.023956298828125,-0.9978485107421875,812819.5890297918,0.003507915651425719,-0.001756088458932936,0.002662095706909895,812819.5907987917,298.9429931640625,-225.069580078125,-214.8058929443359
2024-10-16 18:49:09.114 +0200,300,812819.6002217918,0.002197265625,-0.023712158203125,-0.99847412109375,812819.5989787917,-0.001550492364913225,-0.0005483448621816933,7.137271313695237e-05,812819.6010767918,298.7654113769531,-224.9593200683594,-214.9737243652344
2024-10-16 18:49:09.124 +0200,301,812819.6101707917,0.0029144287109375,-0.0243072509765625,-0.99969482421875,812819.6089277917,-0.0004689826746471226,-0.000966727442573756,-0.003720702370628715,812819.6113557917,298.8650512695312,-224.9743804931641,-214.7802886962891
2024-10-16 18:49:09.133 +0200,302,812819.6201197917,0.003021240234375,-0.024139404296875,-0.9979705810546875,812819.6188767917,-0.0004290352517273277,-0.0006572681595571339,-0.001271925750188529,812819.6216347917,298.9249572753906,-225.0134582519531,-214.8301849365234
2024-10-16 18:49:09.144 +0200,303,812819.6300687917,0.00054931640625,-0.0240325927734375,-0.9983062744140625,812819.6288257918,0.001557949231937528,-0.0008261125767603517,0.0003363572468515486,812819.6319137918,299.0524291992188,-225.1203155517578,-214.7523193359375
2024-10-16 18:49:09.153 +0200,304,812819.6400177918,0.0020751953125,-0.0255584716796875,-0.9997406005859375,812819.6387747917,0.001392566948197782,-0.001703890506178141,-0.001544100814498961,812819.6319137918,299.0524291992188,-225.1203155517578,-214.7523193359375
2024-10-16 18:49:09.163 +0200,305,812819.6499667917,0.000152587890625,-0.02520751953125,-0.9997711181640625,812819.6487237917,0.001446629059500992,-0.002938798163086176,0.0003656520275399089,812819.6421927917,298.731689453125,-225.1931457519531,-214.6972198486328
2024-10-16 18:49:09.173 +0200,306,812819.6599157917,0.001495361328125,-0.027252197265625,-1.000747680664062,812819.6586727917,-0.001571531291119754,-0.004108192399144173,0.0004308994684834033,812819.6524707917,298.7638549804688,-225.0627288818359,-214.7460327148438
2024-10-16 18:49:09.183 +0200,307,812819.6698647917,0.0019989013671875,-0.026214599609375,-0.9995574951171875,812819.6686217918,-0.0001115864506573416,-0.001892974833026528,-0.002610430587083101,812819.6627517918,299.0647277832031,-225.2081451416016,-214.8011169433594
2024-10-16 18:49:09.193 +0200,308,812819.6798137918,0.0019683837890625,-0.02587890625,-0.9990234375,812819.6785707917,0.003210440743714571,-0.002310558455064893,-0.0002125202590832487,812819.6730297917,298.9261474609375,-225.1975250244141,-214.6960296630859
2024-10-16 18:49:09.203 +0200,309,812819.6897627917,0.0004730224609375,-0.024566650390625,-0.9993438720703125,812819.6885197917,0.002630936913192272,-0.003895139321684837,-0.003702859161421657,812819.6833097917,298.861572265625,-225.1345520019531,-214.7369995117188
2024-10-16 18:49:09.213 +0200,310,812819.6997117917,0.003753662109375,-0.025665283203125,-0.9985504150390625,812819.6984687917,0.000339020392857492,-0.002298840554431081,-0.0007829693495295942,812819.6935877918,299.0658569335938,-225.0765533447266,-214.7602844238281
2024-10-16 18:49:09.228 +0200,311,812819.7096607917,0.00384521484375,-0.024932861328125,-0.9980926513671875,812819.7084177918,0.0009920274605974555,-0.001049818121828139,-0.0008910936885513365,812819.7038657917,298.9818725585938,-225.1526489257812,-215.0211181640625
2024-10-16 18:49:09.233 +0200,312,812819.7196097918,0.00213623046875,-0.0246429443359375,-0.9992218017578125,812819.7183667917,-0.000502804818097502,-0.001387773198075593,-0.001032241270877421,812819.7141447917,299.028564453125,-225.2189331054688,-214.7763824462891
2024-10-16 18:49:09.243 +0200,313,812819.7295587917,0.0018463134765625,-0.0254058837890625,-1.000442504882812,812819.7283157917,0.002414421876892447,0.001471929135732353,-0.001307079452089965,812819.7244237917,298.9593505859375,-224.9356384277344,-214.9202575683594
2024-10-16 18:49:09.253 +0200,314,812819.7395077917,0.000396728515625,-0.0232391357421875,-0.9991912841796875,812819.7382647917,-0.001558748190291226,-0.0004202468262519687,0.0003866909828502685,812819.7347027917,298.9722290039062,-225.0825653076172,-214.7782287597656
2024-10-16 18:49:09.263 +0200,315,812819.7494567917,0.0002899169921875,-0.0243988037109375,-0.9991302490234375,812819.7482137918,-0.0009614011505618691,-0.004320446401834488,9.986854274757206e-05,812819.7449817917,299.10986328125,-224.8046569824219,-214.8888702392578
2024-10-16 18:49:09.273 +0200,316,812819.7594057918,0.002227783203125,-0.0262298583984375,-0.9983978271484375,812819.7581627917,0.001238369848579168,-0.0007265103631652892,0.00142718805000186,812819.7552597917,298.9638671875,-225.0644683837891,-214.7540130615234
2024-10-16 18:49:09.284 +0200,317,812819.7693547917,0.002532958984375,-0.0258941650390625,-0.999908447265625,812819.7681117917,-0.001409611199051142,-0.002602707361802459,0.001492169103585184,812819.7655387917,299.0298461914062,-225.012939453125,-214.9360961914062
2024-10-16 18:49:09.293 +0200,318,812819.7793037917,0.0016632080078125,-0.0254364013671875,-0.997283935546875,812819.7780607917,0.003418433479964733,-0.004703408572822809,-0.0002708434767555445,812819.7758177917,299.2631530761719,-224.891357421875,-214.7343292236328
2024-10-16 18:49:09.303 +0200,319,812819.7892527917,0.001312255859375,-0.0252685546875,-0.9996185302734375,812819.7880097918,0.001637311419472098,-0.002033589873462915,-0.0007776430575177073,812819.7860967917,299.194091796875,-224.8670654296875,-214.8227691650391
2024-10-16 18:49:09.313 +0200,320,812819.7992017918,0.001678466796875,-0.023895263671875,-0.9990997314453125,812819.7979587917,0.001529719680547714,-0.002555036684498191,-0.002253034152090549,812819.7963747918,298.9853820800781,-224.9655303955078,-214.8051300048828
2024-10-16 18:49:09.323 +0200,321,812819.8091507917,0.0025634765625,-0.0243682861328125,-1.000091552734375,812819.8079077917,0.0009851033100858331,-0.001732119941152632,-0.001389371114782989,812819.8066527917,299.0239562988281,-224.8021850585938,-214.6560516357422
2024-10-16 18:49:09.332 +0200,322,812819.8190997917,0.00238037109375,-0.0258331298828125,-0.99932861328125,812819.8178567917,0.001639441936276853,-0.001438905950635672,-0.001139832893386483,812819.8169317917,298.9571228027344,-224.8768310546875,-214.9207916259766
2024-10-16 18:49:09.345 +0200,323,812819.8290487917,0.0037384033203125,-0.02484130859375,-0.9976959228515625,812819.8278057917,0.0008277104352600873,-0.000568052229937166,0.0006210491410456598,812819.8272097918,299.1763916015625,-224.8350677490234,-214.7944030761719
2024-10-16 18:49:09.352 +0200,324,812819.8389977918,0.0024261474609375,-0.0243072509765625,-0.9988861083984375,812819.8377547917,0.001250886707566679,-0.002388056600466371,-0.000480434246128425,812819.8374877917,299.0833740234375,-224.8568725585938,-215.0950317382812
2024-10-16 18:49:09.362 +0200,325,812819.8489467917,0.0023956298828125,-0.0247344970703125,-0.99896240234375,812819.8477037917,0.001515072304755449,-0.002088717184960842,-0.002283926820382476,812819.8477667917,298.9896240234375,-224.8997955322266,-214.8657836914062
2024-10-16 18:49:09.372 +0200,326,812819.8588957917,0.0014190673828125,-0.0254669189453125,-0.999298095703125,812819.8576527917,0.001782719977200031,-0.002661563223227859,0.0002324939559912309,812819.8580447917,299.1221923828125,-224.7734680175781,-215.1632385253906
2024-10-16 18:49:09.382 +0200,327,812819.8688447917,0.0023040771484375,-0.0240478515625,-0.9983062744140625,812819.8676017917,0.001823466387577355,-0.001945172902196646,-0.002109489869326353,812819.8683227918,299.3142700195312,-224.7407684326172,-214.8389892578125
2024-10-16 18:49:09.392 +0200,328,812819.8787947918,0.0034332275390625,-0.02484130859375,-0.9990386962890625,812819.8775517917,0.001356880529783666,-0.002061020350083709,-0.0004964132094755769,812819.8786017917,299.178955078125,-224.9951782226562,-214.8696441650391
2024-10-16 18:49:09.402 +0200,329,812819.8887437917,0.00213623046875,-0.02581787109375,-0.9990997314453125,812819.8875007917,0.001826395862735808,-0.0009811085183173418,-0.00222480483353138,812819.8888787917,299.1378173828125,-224.8690795898438,-215.0081481933594
2024-10-16 18:49:09.412 +0200,330,812819.8986927917,0.002044677734375,-0.026214599609375,-0.9988250732421875,812819.8974497917,0.005591040477156639,-0.002606968395411968,-0.000964064325671643,812819.8991567917,299.0782470703125,-224.7231292724609,-215.0690155029297
2024-10-16 18:49:09.422 +0200,331,812819.9086417917,0.0015869140625,-0.0268402099609375,-1.000823974609375,812819.9073987918,0.0004743089957628399,-0.004573712591081858,0.001295894151553512,812819.9094347918,299.2627258300781,-224.7458953857422,-214.7682495117188
2024-10-16 18:49:09.432 +0200,332,812819.9185907918,0.001617431640625,-0.0253143310546875,-0.999847412109375,812819.9173477917,0.00114169716835022,-0.001453286968171597,-0.003703125519677997,812819.9197127917,299.0705261230469,-225.0453033447266,-214.9508972167969
2024-10-16 18:49:09.442 +0200,333,812819.9285397917,0.000579833984375,-0.026611328125,-0.9983673095703125,812819.9272967917,-0.0006623281515203416,0.000221574999159202,0.0009925601771101356,812819.9299917917,299.1258544921875,-224.9015655517578,-214.7388610839844
2024-10-16 18:49:09.452 +0200,334,812819.9384887917,0.000762939453125,-0.0254058837890625,-0.999603271484375,812819.9372457917,0.001091363374143839,-0.0007382282637991011,-0.002449042862281203,812819.9402697918,298.8501586914062,-225.0036163330078,-214.8412322998047
2024-10-16 18:49:09.464 +0200,335,812819.9484377917,0.0021820068359375,-0.02392578125,-0.998626708984375,812819.9471947917,0.0006916229031048715,-0.004601676017045975,-0.002017610939219594,812819.9402697918,298.8501586914062,-225.0036163330078,-214.8412322998047
2024-10-16 18:49:09.472 +0200,336,812819.9583867918,0.0027618408203125,-0.0239105224609375,-0.9999542236328125,812819.9571437917,0.0006820355774834752,-0.002198705682530999,-0.002119343494996428,812819.9505477917,298.9846801757812,-224.9763793945312,-214.6457061767578
2024-10-16 18:49:09.482 +0200,337,812819.9683357917,0.0027313232421875,-0.02520751953125,-0.9989013671875,812819.9670927917,0.001205613021738827,-0.003283943980932236,0.0002069276088150218,812819.9608257917,299.0231018066406,-224.9757537841797,-214.9628753662109
2024-10-16 18:49:09.492 +0200,338,812819.9782847917,0.002105712890625,-0.0248565673828125,-0.99920654296875,812819.9770417917,-0.001010137028060853,-0.00307675008662045,-0.001303617376834154,812819.9711047917,298.9513549804688,-224.9857177734375,-214.6830902099609
2024-10-16 18:49:09.501 +0200,339,812819.9882337917,0.0022125244140625,-0.024169921875,-0.998931884765625,812819.9869907917,0.00248100096359849,-0.002341717481613159,-0.003148921532556415,812819.9813817918,299.1229858398438,-225.1549224853516,-214.7565155029297
2024-10-16 18:49:09.512 +0200,340,812819.9981827918,0.0037384033203125,-0.0254058837890625,-0.9980010986328125,812819.9969397917,0.002411758759990335,-0.003436543047428131,-0.001539307064376771,812819.9916607917,299.2611083984375,-224.8960876464844,-214.7561645507812
2024-10-16 18:49:09.528 +0200,341,812820.0081320001,0.0041351318359375,-0.0257720947265625,-0.998687744140625,812820.0068890001,0.001449292292818427,0.0002016012876993045,-0.0006641923682764173,812820.0019387917,299.1266479492188,-224.9568939208984,-214.8113861083984
2024-10-16 18:49:09.531 +0200,342,812820.0180810001,0.00390625,-0.0260467529296875,-1.000534057617188,812820.016838,0.002599511528387666,-0.001682585221715271,-0.002375273266807199,812820.012217,299.1633911132812,-224.9263000488281,-214.7916564941406
2024-10-16 18:49:09.541 +0200,343,812820.02803,0.002349853515625,-0.0267486572265625,-0.9992828369140625,812820.026787,0.001309742568992078,-0.002870621392503381,-0.002579537918791175,812820.022494,299.0148315429688,-224.9125213623047,-214.7362823486328
2024-10-16 18:49:09.551 +0200,344,812820.037979,0.00115966796875,-0.025054931640625,-0.9994049072265625,812820.0367360001,-0.001209607813507318,-0.002413356676697731,-0.0002759034978225827,812820.03277,298.947998046875,-224.8805236816406,-214.8615112304688
2024-10-16 18:49:09.561 +0200,345,812820.0479280001,0.0028076171875,-0.0262298583984375,-0.9989013671875,812820.0466850001,-0.001175785670056939,-0.00259365257807076,0.0002277002786286175,812820.0430480001,298.6991577148438,-225.050048828125,-214.6655426025391
2024-10-16 18:49:09.571 +0200,346,812820.0578770001,0.002899169921875,-0.026275634765625,-1.000274658203125,812820.056634,0.0009054747642949224,-0.0009816411184147,-0.0008261125767603517,812820.053326,299.0009155273438,-224.9643096923828,-214.7714080810547
2024-10-16 18:49:09.585 +0200,347,812820.067826,0.001800537109375,-0.0247650146484375,-0.9991302490234375,812820.066583,-0.001389637473039329,-0.003301254473626614,-0.0009864348685368896,812820.063604,298.9754943847656,-225.0441589355469,-214.7198638916016
2024-10-16 18:49:09.591 +0200,348,812820.077775,0.0005645751953125,-0.0254364013671875,-0.9997406005859375,812820.0765320001,-0.001478853286243975,0.0003406183095648885,-0.001162736094556749,812820.0738820001,299.0279541015625,-225.1387939453125,-214.713134765625
2024-10-16 18:49:09.601 +0200,349,812820.0877240001,0.0009918212890625,-0.0242919921875,-0.998870849609375,812820.0864810001,-0.00298726768232882,-0.003463441040366888,0.0003307645965833217,812820.0841600001,298.8632202148438,-224.9698028564453,-214.7150421142578
2024-10-16 18:49:09.611 +0200,350,812820.0976730001,0.0001983642578125,-0.02337646484375,-0.9981689453125,812820.09643,0.001173388794995844,-0.0008436894277110696,-0.001568601815961301,812820.0944360001,299.0581665039062,-225.1447143554688,-214.703125
2024-10-16 18:49:09.621 +0200,351,812820.107622,0.002960205078125,-0.02423095703125,-0.9976959228515625,812820.106379,0.001555818715132773,-0.003197124926373363,-0.002331331139430404,812820.104714,298.9708862304688,-224.9881439208984,-214.8101501464844
2024-10-16 18:49:09.631 +0200,352,812820.117571,0.002349853515625,-0.0248260498046875,-0.998504638671875,812820.1163280001,0.003615241264924407,-0.001307079452089965,0.0002271676348755136,812820.114992,299.11962890625,-224.9163665771484,-214.9226837158203
2024-10-16 18:49:09.645 +0200,353,812820.1275200001,0.0010833740234375,-0.0254058837890625,-1.001068115234375,812820.1262770001,0.000394147849874571,-0.0007451524725183845,-0.001642105169594288,812820.1252690001,299.0281066894531,-224.9869537353516,-214.4561462402344
2024-10-16 18:49:09.651 +0200,354,812820.1374690001,0.00189208984375,-0.0257568359375,-0.9998931884765625,812820.136226,0.002263686852529645,-0.002745452802628279,-0.004446946550160646,812820.1355470001,299.0715637207031,-224.9206237792969,-214.9085693359375
2024-10-16 18:49:09.661 +0200,355,812820.147418,0.0020904541015625,-0.0255584716796875,-0.998626708984375,812820.146175,0.002594717778265476,-0.003603257006034255,-0.002747583203017712,812820.145824,298.9570922851562,-224.9891052246094,-214.8616790771484
2024-10-16 18:49:09.671 +0200,356,812820.157367,0.001190185546875,-0.0268707275390625,-0.99853515625,812820.1561240001,0.002334793331101537,-0.001394164864905179,-0.0007994809420779347,812820.156102,299.2003784179688,-224.8331604003906,-214.8738555908203
2024-10-16 18:49:09.681 +0200,357,812820.1673160001,0.001129150390625,-0.025665283203125,-0.9998016357421875,812820.1660730001,0.002655437914654613,0.0001012001230265014,0.0001304948964389041,812820.1663800001,299.0833740234375,-224.9261016845703,-214.7410736083984
2024-10-16 18:49:09.691 +0200,358,812820.1772660001,-0.000244140625,-0.025970458984375,-0.9987945556640625,812820.176023,-0.0004111920716241002,-0.001564074540510774,1.890844396257307e-05,812820.1766580001,298.865966796875,-224.9730834960938,-214.8723449707031
2024-10-16 18:49:09.701 +0200,359,812820.187215,0.0034027099609375,-0.0242767333984375,-1.000030517578125,812820.185972,0.001761414692737162,-0.003014165675267577,-0.002121207769960165,812820.186937,299.116943359375,-225.0213928222656,-214.9450378417969
2024-10-16 18:49:09.711 +0200,360,812820.197164,0.0016021728515625,-0.025482177734375,-0.99993896484375,812820.1959210001,-0.002356897573918104,-0.0008010788587853312,-0.001949700177647173,812820.1972150001,299.0752868652344,-225.0512084960938,-214.8100738525391
2024-10-16 18:49:09.720 +0200,361,812820.2071130001,0.0009918212890625,-0.027313232421875,-1.000244140625,812820.2058700001,0.0008665926288813353,-0.00233745644800365,-0.00440966198220849,812820.2074920001,299.0885314941406,-225.0845947265625,-214.7468414306641
2024-10-16 18:49:09.730 +0200,362,812820.2170620001,0.001129150390625,-0.0254058837890625,-0.999420166015625,812820.215819,0.0006327670416794717,-0.0008823052630759776,0.001485511194914579,812820.2177700001,298.9542846679688,-224.9429626464844,-214.8520660400391
2024-10-16 18:49:09.740 +0200,363,812820.227011,0.003448486328125,-0.0243988037109375,-0.998626708984375,812820.225768,0.002162220422178507,-0.0007246461464092135,-0.001282312092371285,812820.228048,298.9380493164062,-224.9368133544922,-214.7664031982422
2024-10-16 18:49:09.750 +0200,364,812820.23696,0.0004730224609375,-0.024871826171875,-0.9995269775390625,812820.2357170001,0.00132146046962589,-0.004041613079607487,-0.002064482541754842,812820.2383270001,298.781982421875,-224.9462585449219,-214.8455963134766
2024-10-16 18:49:09.764 +0200,365,812820.2469090001,0.0008087158203125,-0.024505615234375,-0.999053955078125,812820.2456660001,0.0003464772598817945,-0.003349723992869258,0.0003467435599304736,812820.2486050001,299.07861328125,-225.1297454833984,-214.8809509277344
2024-10-16 18:49:09.770 +0200,366,812820.2568580001,0.00189208984375,-0.0256195068359375,-0.9999847412109375,812820.255615,0.001346227945759892,-0.0035582494456321,-0.00165329035371542,812820.2486050001,299.07861328125,-225.1297454833984,-214.8809509277344
2024-10-16 18:49:09.780 +0200,367,812820.266807,0.0015411376953125,-0.0251007080078125,-0.99847412109375,812820.265564,0.001045823330059648,-0.002809634897857904,0.0005030711181461811,812820.258882,298.704345703125,-225.0540618896484,-214.8532867431641
2024-10-16 18:49:09.790 +0200,368,812820.276756,0.003204345703125,-0.02349853515625,-0.9992523193359375,812820.2755130001,0.002002430846914649,-0.001089765457436442,0.0001744370529195294,812820.26916,298.8641357421875,-225.0648956298828,-214.7197418212891
2024-10-16 18:49:09.800 +0200,369,812820.2867050001,0.00244140625,-0.0250396728515625,-0.9999237060546875,812820.2854620001,0.002746518002822995,-0.002377137541770935,-0.002474076580256224,812820.279437,298.9552001953125,-225.0072937011719,-214.989013671875
2024-10-16 18:49:09.810 +0200,370,812820.2966540001,0.00274658203125,-0.02545166015625,-0.9991302490234375,812820.295411,0.0008399609941989183,0.0002769687562249601,-0.002171008847653866,812820.2897140001,298.8829040527344,-225.1260528564453,-214.7229766845703
2024-10-16 18:49:09.820 +0200,371,812820.306603,0.0020904541015625,-0.0250396728515625,-0.9999542236328125,812820.30536,0.0007174555794335902,-0.001430650125257671,-0.001585912425071001,812820.2999910001,298.6639404296875,-225.1056518554688,-215.0583343505859
2024-10-16 18:49:09.830 +0200,372,812820.316552,0.0011444091796875,-0.02593994140625,-0.99871826171875,812820.3153090001,0.0037257622461766,0.0008759136544540524,-0.003473028307780623,812820.310269,298.6543273925781,-225.1759338378906,-214.9385223388672
2024-10-16 18:49:09.840 +0200,373,812820.3265010001,0.0017547607421875,-0.0248565673828125,-0.999237060546875,812820.3252580001,0.001224787789396942,-0.002701510675251484,-0.001072721322998405,812820.320547,298.7249755859375,-225.0984191894531,-215.0875091552734
2024-10-16 18:49:09.850 +0200,374,812820.3364500001,0.002685546875,-0.0247802734375,-0.9987335205078125,812820.335207,0.002475142013281584,-0.002563026268035173,2.689792745513842e-05,812820.3308250001,298.7876586914062,-225.2016906738281,-215.2341003417969
2024-10-16 18:49:09.860 +0200,375,812820.346399,0.002471923828125,-0.0241851806640625,-1.000518798828125,812820.345156,0.001247158274054527,2.74305584753165e-05,-0.00129669310990721,812820.3411020001,298.557373046875,-225.1990814208984,-214.8111724853516
2024-10-16 18:49:09.870 +0200,376,812820.356348,0.001312255859375,-0.0254058837890625,-0.9995880126953125,812820.3551050001,0.0002716424351092428,-0.00107059080619365,-0.001969673903658986,812820.351378,298.8504028320312,-225.0758514404297,-214.6037750244141
2024-10-16 18:49:09.884 +0200,377,812820.3662970001,0.0023345947265625,-0.025054931640625,-0.9979705810546875,812820.3650540001,0.0001816275907913223,-0.001023452845402062,0.0004556668573059142,812820.361654,298.9496154785156,-225.2565307617188,-215.029052734375
2024-10-16 18:49:09.890 +0200,378,812820.3762460001,0.0012664794921875,-0.0255126953125,-0.99835205078125,812820.375003,0.001035703346133232,-0.001516670221462846,-0.002591255819424987,812820.37193,298.9217529296875,-225.1126861572266,-214.4186096191406
2024-10-16 18:49:09.900 +0200,379,812820.386195,0.002197265625,-0.0232391357421875,-0.9970855712890625,812820.384952,0.001606418751180172,-0.001860484364442527,-0.0006868292111903429,812820.382206,299.0588684082031,-224.9836883544922,-215.0139312744141
2024-10-16 18:49:09.909 +0200,380,812820.396144,0.0006103515625,-0.0254058837890625,-1.000076293945312,812820.3949010001,-0.0001193096177303232,0.000313986703986302,-0.0001536643976578489,812820.3924830001,299.0520629882812,-225.1129913330078,-214.5729522705078
2024-10-16 18:49:09.919 +0200,381,812820.4060930001,0.000152587890625,-0.0243988037109375,-0.9987335205078125,812820.40485,-0.0001568601874168962,-0.0007265103631652892,0.000147272803587839,812820.4027590001,298.8367919921875,-225.2088775634766,-214.8204803466797
2024-10-16 18:49:09.929 +0200,382,812820.4160420001,0.0023956298828125,-0.0241546630859375,-0.99896240234375,812820.414799,0.0003158508916385472,-0.001532649155706167,-0.001263669924810529,812820.4130360001,298.7996826171875,-225.0886535644531,-214.9964294433594
2024-10-16 18:49:09.944 +0200,383,812820.425991,0.0011749267578125,-0.024261474609375,-0.9995880126953125,812820.4247480001,0.0007661914569325745,-0.002196308923885226,-0.002107625594362617,812820.423314,298.8461303710938,-225.1481781005859,-214.6664276123047
2024-10-16 18:49:09.949 +0200,384,812820.43594,0.0019989013671875,-0.025421142578125,-1.000030517578125,812820.4346970001,-0.0007827030494809151,-0.00172466307412833,-0.0007337008719332516,812820.433591,298.7734375,-225.1947631835938,-214.6741485595703
2024-10-16 18:49:09.959 +0200,385,812820.4458890001,0.0034027099609375,-0.02545166015625,-0.997772216796875,812820.444646,-0.0005600627628155053,-0.002538525033742189,-0.002557433675974607,812820.4438690001,298.876708984375,-225.0869750976562,-214.6870422363281
2024-10-16 18:49:09.969 +0200,386,812820.4558380001,0.0041351318359375,-0.0254364013671875,-0.998779296875,812820.454595,0.0002111886715283617,-0.002289253287017345,-0.001186171895824373,812820.4541470001,298.9180603027344,-225.1918640136719,-214.649169921875
2024-10-16 18:49:09.979 +0200,387,812820.465787,0.00390625,-0.02593994140625,-0.998809814453125,812820.4645440001,0.0007129282457754016,-0.002323341788724065,-0.001829857937991619,812820.464424,298.9207153320312,-225.1015014648438,-214.8001861572266
2024-10-16 18:49:09.989 +0200,388,812820.475737,0.00225830078125,-0.024078369140625,-0.9996185302734375,812820.4744940001,-0.0005571332876570523,-0.0008916263468563557,-0.0004620584368240088,812820.474702,299.0232849121094,-224.9542694091797,-214.5714416503906
2024-10-16 18:49:09.999 +0200,389,812820.4856860001,0.0029449462890625,-0.025146484375,-0.999298095703125,812820.4844430001,-0.0004303668392822146,-0.003059705719351768,-0.001655687228776515,812820.4849790001,298.8497924804688,-225.0417633056641,-214.6914520263672
2024-10-16 18:49:10.011 +0200,390,812820.4956350001,0.00238037109375,-0.025543212890625,-0.9985198974609375,812820.494392,0.001967543503269553,-0.00112918030936271,-0.002584864152595401,812820.4952580001,298.8707275390625,-225.0838317871094,-214.5144958496094
2024-10-16 18:49:10.019 +0200,391,812820.505584,0.0028839111328125,-0.0258331298828125,-0.999267578125,812820.504341,0.003220294369384646,-0.001265800441615283,-0.00102398544549942,812820.505536,298.7626342773438,-225.1964874267578,-214.7337036132812
2024-10-16 18:49:10.029 +0200,392,812820.515533,0.002471923828125,-0.023773193359375,-1.00018310546875,812820.5142900001,-7.456851017195731e-05,-0.001164600369520485,-0.002738794777542353,812820.515814,299.0043029785156,-225.1625518798828,-214.9415435791016
2024-10-16 18:49:10.039 +0200,393,812820.5254820001,0.0006866455078125,-0.0241851806640625,-0.9989013671875,812820.524239,0.0013339773286134,-0.002457564929500222,-0.001023452845402062,812820.5260930001,298.92041015625,-225.1019592285156,-214.7405853271484
2024-10-16 18:49:10.049 +0200,394,812820.5354310001,0.0021209716796875,-0.02618408203125,-0.99920654296875,812820.534188,0.001419198582880199,-0.0002633866388350725,-0.002377403900027275,812820.536371,298.83642578125,-225.1195678710938,-214.7990112304688
2024-10-16 18:49:10.064 +0200,395,812820.54538,0.001007080078125,-0.0255889892578125,-1.000106811523438,812820.534188,0.001419198582880199,-0.0002633866388350725,-0.002377403900027275,812820.54665,298.8899230957031,-224.9546356201172,-214.7275085449219
2024-10-16 18:49:10.069 +0200,396,812820.555329,0.0030364990234375,-0.025177001953125,-0.9998779296875,812820.5540860001,-0.0002993392990902066,-0.00133877107873559,-0.002345712156966329,812820.5569290001,298.83251953125,-225.1029357910156,-214.9793853759766
2024-10-16 18:49:10.079 +0200,397,812820.5652780001,0.0028076171875,-0.0248565673828125,-0.9998016357421875,812820.564035,0.001427720650099218,-0.0008050735923461616,0.0009976201690733433,812820.567209,298.841796875,-225.0934143066406,-214.6997833251953
2024-10-16 18:49:10.089 +0200,398,812820.5752270001,0.0022125244140625,-0.0254974365234375,-1.000030517578125,812820.573984,0.001280714175663888,-0.003598995972424746,-0.003310309257358313,812820.567209,298.841796875,-225.0934143066406,-214.6997833251953
2024-10-16 18:49:10.099 +0200,399,812820.585176,0.0035400390625,-0.0234527587890625,-0.998565673828125,812820.5839330001,0.001813346403650939,-0.002794188680127263,-0.001314536319114268,812820.577487,298.79931640625,-224.9710845947266,-214.8248748779297
2024-10-16 18:49:10.108 +0200,400,812820.595125,0.00311279296875,-0.0239715576171875,-0.998321533203125,812820.5938820001,-0.002301503904163837,-0.003486077766865492,-0.001601891359314322,812820.5877660001,299.0645141601562,-225.1614837646484,-214.8404846191406
2024-10-16 18:49:10.119 +0200,401,812820.6050740001,0.004302978515625,-0.0247344970703125,-1.000274658203125,812820.603831,-7.217166421469301e-05,-0.001727326307445765,-0.002501507289707661,812820.598045,298.8711853027344,-225.059326171875,-214.9307556152344
2024-10-16 18:49:10.128 +0200,402,812820.615023,0.0020294189453125,-0.02459716796875,-0.9991455078125,812820.61378,0.001424258574843407,-0.001691639889031649,0.0002681803307496011,812820.608324,299.04296875,-225.0972290039062,-214.5995025634766
2024-10-16 18:49:10.138 +0200,403,812820.624972,0.002685546875,-0.0251007080078125,-0.9997100830078125,812820.6237290001,0.001478054444305599,-0.0002218413137597963,-0.0009619337506592274,812820.6186040001,298.794921875,-224.94287109375,-214.8216247558594
2024-10-16 18:49:10.148 +0200,404,812820.6349210001,0.00225830078125,-0.0254058837890625,-0.9995574951171875,812820.6336780001,0.0006093312404118478,-0.003572630463168025,-0.0005374259199015796,812820.628884,298.974853515625,-225.0648956298828,-214.7262115478516
2024-10-16 18:49:10.158 +0200,405,812820.6448700001,0.003082275390625,-0.02484130859375,-0.9984130859375,812820.643627,-0.001126250834204257,-0.001944640185683966,-0.001504685962572694,812820.639163,298.9987182617188,-225.0137023925781,-214.7488555908203
2024-10-16 18:49:10.168 +0200,406,812820.654819,0.0006256103515625,-0.0247039794921875,-0.9983062744140625,812820.653576,0.001696966239251196,0.0004593952908180654,-0.003522030543535948,812820.6494420001,298.9776000976562,-225.0531311035156,-214.6129302978516
2024-10-16 18:49:10.184 +0200,407,812820.664768,0.0014801025390625,-0.02471923828125,-0.99761962890625,812820.6635250001,0.001279116258956492,-0.0009747169679030776,-0.001969940261915326,812820.659721,298.9081420898438,-225.0210418701172,-214.8188323974609
2024-10-16 18:49:10.188 +0200,408,812820.6747170001,0.0014495849609375,-0.0241546630859375,-0.9982452392578125,812820.6734740001,-0.0002889529860112816,-0.0010404969798401,0.001019458053633571,812820.669999,298.84130859375,-225.0623321533203,-214.5184020996094
2024-10-16 18:49:10.198 +0200,409,812820.6846660001,0.002197265625,-0.0260467529296875,-0.998992919921875,812820.683423,0.003494866192340851,-0.001916676992550492,-0.001574727124534547,812820.6802790001,298.8319091796875,-225.1396026611328,-214.8587799072266
2024-10-16 18:49:10.208 +0200,410,812820.694615,0.0039520263671875,-0.025238037109375,-0.99920654296875,812820.693372,0.001663943054154515,0.0002151834196411073,-0.0008516788948327303,812820.690558,299.1517333984375,-224.9724731445312,-214.6968994140625
2024-10-16 18:49:10.218 +0200,411,812820.704564,0.00421142578125,-0.025634765625,-0.997772216796875,812820.7033210001,-0.0003307645965833217,-0.0008942894637584686,-0.0004354268312454224,812820.700837,298.9052124023438,-225.1108551025391,-214.7641754150391
2024-10-16 18:49:10.228 +0200,412,812820.7145130001,0.004058837890625,-0.0244140625,-1.000411987304688,812820.7132700001,0.0004631237243302166,-0.001561145065352321,-0.0008993495139293373,812820.7111170001,298.8125915527344,-225.0382843017578,-214.6170806884766
2024-10-16 18:49:10.245 +0200,413,812820.7244620001,0.0035247802734375,-0.0240325927734375,-0.9976806640625,812820.723219,0.001419198582880199,-0.003591805230826139,-0.0008990831556729972,812820.721397,298.910400390625,-225.1375427246094,-214.6609344482422
2024-10-16 18:49:10.248 +0200,414,812820.734411,0.00323486328125,-0.025115966796875,-0.999481201171875,812820.733168,-0.001269262516871095,9.241169027518481e-05,-0.0006332996999844909,812820.7316770001,298.9971313476562,-225.0188293457031,-214.5825958251953
2024-10-16 18:49:10.258 +0200,415,812820.74436,0.0032806396484375,-0.025543212890625,-1.000686645507812,812820.7431170001,0.0008503473363816738,-4.420847471919842e-05,0.0002372876479057595,812820.741957,299.2296752929688,-224.9420166015625,-214.9516143798828
2024-10-16 18:49:10.268 +0200,416,812820.7543100001,0.0021820068359375,-0.0249786376953125,-1.001556396484375,812820.7530670001,0.0009406284661963582,-0.003666640259325504,-0.001551024965010583,812820.752236,299.0509033203125,-224.9171447753906,-214.8406829833984
2024-10-16 18:49:10.278 +0200,417,812820.7642590001,0.00201416015625,-0.0258941650390625,-0.9992523193359375,812820.763016,-0.001344097428955138,-0.003201918443664908,0.000458330032415688,812820.7625150001,298.9909057617188,-224.9419708251953,-214.8215484619141
2024-10-16 18:49:10.288 +0200,418,812820.774208,0.000946044921875,-0.0265350341796875,-0.9996490478515625,812820.772965,0.0003113235288765281,6.684534309897572e-05,-0.002282329136505723,812820.772795,298.86376953125,-225.0087585449219,-214.9347076416016
2024-10-16 18:49:10.298 +0200,419,812820.784157,-0.000396728515625,-0.02484130859375,-0.9994049072265625,812820.7829140001,0.001077781314961612,-0.0009299758239649236,-0.0007691209320910275,812820.783075,298.8670349121094,-225.02294921875,-214.7921905517578
2024-10-16 18:49:10.311 +0200,420,812820.7941060001,0.0016937255859375,-0.025665283203125,-0.998504638671875,812820.7928630001,0.001065264455974102,-0.004160123877227306,-0.001492435461841524,812820.7933540001,298.8765258789062,-225.0081634521484,-214.6901245117188
2024-10-16 18:49:10.317 +0200,421,812820.8040550001,0.00079345703125,-0.025909423828125,-0.9971160888671875,812820.802812,0.0006886934279464185,-0.0008013451588340104,-0.000176301269675605,812820.803634,299.0678100585938,-224.8933258056641,-214.9333648681641
2024-10-16 18:49:10.327 +0200,422,812820.814004,0.0023651123046875,-0.0255889892578125,-0.998626708984375,812820.812761,0.00140535004902631,-0.003653324441984296,-0.0009302421822212636,812820.813913,298.9804077148438,-225.0768890380859,-214.5337677001953
2024-10-16 18:49:10.337 +0200,423,812820.823953,0.0007476806640625,-0.0252227783203125,-0.99920654296875,812820.8227100001,0.00239684502594173,-0.003589941188693047,-0.0005241101025603712,812820.8241920001,298.7927856445312,-225.1163482666016,-214.8424377441406
2024-10-16 18:49:10.347 +0200,424,812820.8339020001,0.0039825439453125,-0.0250091552734375,-0.9982452392578125,812820.8326590001,0.001566205057315528,-0.003576092654839158,-0.001576325041241944,812820.834472,298.8422546386719,-224.9667205810547,-214.7698669433594
2024-10-16 18:49:10.364 +0200,425,812820.8438510001,0.0018768310546875,-0.0252532958984375,-0.9994659423828125,812820.842608,0.002071140334010124,-0.005074653308838606,-0.002515888307243586,812820.8447510001,299.0847778320312,-224.9785461425781,-214.6445617675781
2024-10-16 18:49:10.367 +0200,426,812820.8538,0.0023193359375,-0.024810791015625,-0.999786376953125,812820.852557,0.002120408928021789,-0.003655454842373729,0.0004498079069890082,812820.8550300001,298.9700927734375,-224.9156494140625,-214.5240478515625
2024-10-16 18:49:10.377 +0200,427,812820.863749,0.0016021728515625,-0.025421142578125,-0.999053955078125,812820.8625060001,0.0002775013854261488,-0.001364337396807969,-0.002305498579517007,812820.865309,299.1126098632812,-225.0187530517578,-214.6005401611328
2024-10-16 18:49:10.387 +0200,428,812820.8736980001,0.0025787353515625,-0.026397705078125,-0.9994049072265625,812820.8724550001,0.0004029362753499299,-0.002281530061736703,-0.001004278077743948,812820.8755890001,298.9518432617188,-225.0658569335938,-214.5032653808594
2024-10-16 18:49:10.397 +0200,429,812820.8836470001,0.00164794921875,-0.0263214111328125,-0.999114990234375,812820.882404,0.001747300033457577,-0.001888181199319661,-0.0006998787284828722,812820.8755890001,298.9518432617188,-225.0658569335938,-214.5032653808594
2024-10-16 18:49:10.407 +0200,430,812820.893596,0.0005340576171875,-0.026275634765625,-0.9992523193359375,812820.892353,-0.002016013022512197,-0.001380050089210272,-0.0002719087351579219,812820.8858680001,299.1553955078125,-224.8621978759766,-214.8208465576172
2024-10-16 18:49:10.417 +0200,431,812820.903545,0.003387451171875,-0.0257568359375,-1.0006103515625,812820.9023020001,0.001184041379019618,-0.001652225153520703,-0.001162736094556749,812820.896147,299.1520385742188,-224.8172607421875,-214.6982269287109
2024-10-16 18:49:10.428 +0200,432,812820.9134940001,0.001190185546875,-0.02447509765625,-0.9987945556640625,812820.9122510001,0.002260757377371192,-0.003924167715013027,-0.001102282316423953,812820.9064260001,299.138427734375,-224.8639678955078,-214.7773590087891
2024-10-16 18:49:10.437 +0200,433,812820.9234430001,0.002532958984375,-0.0236663818359375,-0.9980926513671875,812820.9222,-0.0003427488263696432,-0.002185123739764094,8.096009696600959e-05,812820.9167050001,298.9172973632812,-224.9131622314453,-214.5142822265625
2024-10-16 18:49:10.447 +0200,434,812820.933392,0.00189208984375,-0.025604248046875,-1.00006103515625,812820.932149,-0.0009558085002936423,-0.002325472189113498,-0.00208152667619288,812820.926983,298.8098754882812,-224.9878082275391,-214.8409881591797
2024-10-16 18:49:10.457 +0200,435,812820.943341,-0.0006103515625,-0.0255889892578125,-0.9994354248046875,812820.9420980001,0.001940379152074456,-0.00159922824241221,-0.0007352987886406481,812820.9372620001,298.9523315429688,-225.0227966308594,-214.7399444580078
2024-10-16 18:49:10.467 +0200,436,812820.9532900001,0.0014801025390625,-0.024658203125,-0.996917724609375,812820.9520470001,0.001505484920926392,-0.003971305675804615,-0.003261307021602988,812820.9475420001,299.0127563476562,-225.0473785400391,-215.0038604736328
2024-10-16 18:49:10.483 +0200,437,812820.9632390001,0.0027008056640625,-0.02447509765625,-0.9986572265625,812820.961996,0.001605353434570134,-0.004711132030934095,-0.001676193554885685,812820.95782,298.8594665527344,-225.101318359375,-214.93994140625
2024-10-16 18:49:10.487 +0200,438,812820.973188,0.00299072265625,-0.026458740234375,-0.9998016357421875,812820.971945,0.001271925750188529,-0.001659682020545006,-0.001300155185163021,812820.968097,298.8809814453125,-224.9685516357422,-214.8272399902344
2024-10-16 18:49:10.496 +0200,439,812820.983137,0.0034027099609375,-0.024993896484375,-0.999176025390625,812820.9818940001,0.001871669548563659,0.0005139900604262948,1.997370782191865e-05,812820.9783760001,298.86474609375,-225.1084899902344,-215.0210876464844
2024-10-16 18:49:10.506 +0200,440,812820.9930860001,0.0020599365234375,-0.025238037109375,-0.998931884765625,812820.9918430001,-0.0001286306796828285,-0.00131400371901691,-0.002760366536676884,812820.988655,299.083740234375,-224.9783172607422,-215.1185150146484
2024-10-16 18:49:10.516 +0200,441,812821.0030350001,0.0027008056640625,-0.0261688232421875,-1.00018310546875,812821.001792,0.0008021441171877086,-0.001443965942598879,-0.001358744804747403,812820.998935,299.1286926269531,-225.0284729003906,-215.1400299072266
2024-10-16 18:49:10.526 +0200,442,812821.0129835,0.005279541015625,-0.024658203125,-0.999267578125,812821.0117405001,0.001826662220992148,-0.001691906247287989,-0.004576376173645258,812821.0092145001,298.918212890625,-225.1290435791016,-215.0319976806641
2024-10-16 18:49:10.537 +0200,443,812821.0229325,0.002471923828125,-0.0237579345703125,-0.999725341796875,812821.0216895001,0.003443200839683414,-0.001408545882441103,-0.0003107908996753395,812821.0194955,298.7036743164062,-224.9614868164062,-215.0093231201172
2024-10-16 18:49:10.546 +0200,444,812821.0328825001,0.0016021728515625,-0.02496337890625,-0.9994964599609375,812821.0316395001,-0.0009574064170010388,-0.003127616364508867,-0.0002130528882844374,812821.0297755001,299.1244812011719,-224.8086853027344,-214.9616088867188
2024-10-16 18:49:10.556 +0200,445,812821.0428315001,0.00372314453125,-0.0255279541015625,-0.9994049072265625,812821.0415885,-0.00250576832331717,-0.001746234716847539,-0.0001723065215628594,812821.0400545001,298.8561401367188,-224.9563140869141,-214.9497375488281
2024-10-16 18:49:10.566 +0200,446,812821.0527805,0.0008087158203125,-0.02490234375,-0.9989776611328125,812821.0515375,0.0009238505735993385,-0.003287672298029065,-0.0009523464250378311,812821.0503345,298.8631896972656,-225.0160827636719,-214.6771087646484
2024-10-16 18:49:10.576 +0200,447,812821.0627295,0.0005340576171875,-0.0237579345703125,-0.9983367919921875,812821.0614865001,0.002630670554935932,0.0005022721597924829,-0.0008402272942475975,812821.0606145001,298.89404296875,-225.119384765625,-214.9251861572266
2024-10-16 18:49:10.586 +0200,448,812821.0726785001,0.000701904296875,-0.02362060546875,-0.999908447265625,812821.0714355001,0.003121224697679281,-0.002175269881263375,-0.002577673643827438,812821.0708925,298.8480834960938,-225.0545959472656,-214.9142150878906
2024-10-16 18:49:10.597 +0200,449,812821.0826275001,0.0009765625,-0.02435302734375,-0.9988250732421875,812821.0813845,-0.0007241134881041944,-0.005819539539515972,-0.00140987744089216,812821.0811725,298.8686828613281,-224.9349822998047,-214.93896484375
2024-10-16 18:49:10.611 +0200,450,812821.0925765,0.0026092529296875,-0.0247802734375,-0.998443603515625,812821.0913335,0.0002063949796138331,-0.001431981683708727,0.0001717738923616707,812821.0914515001,298.7441711425781,-225.0429229736328,-214.6775207519531
2024-10-16 18:49:10.616 +0200,451,812821.1025255,0.002838134765625,-0.0255584716796875,-0.9997406005859375,812821.1012825001,-0.0011249192757532,-0.003095924854278564,-0.0006756439688615501,812821.1017315,299.0223388671875,-224.9683837890625,-215.0533294677734
2024-10-16 18:49:10.626 +0200,452,812821.1124745001,0.002838134765625,-0.0245819091796875,-0.999114990234375,812821.1112315001,0.002532133599743247,-0.002829874865710735,0.0005912217311561108,812821.1120115001,298.9814453125,-225.0449981689453,-214.7431030273438
2024-10-16 18:49:10.636 +0200,453,812821.1224235001,0.0009613037109375,-0.025726318359375,-0.9993133544921875,812821.1211805,0.002674879040569067,-0.002122539328411222,-0.002626675646752119,812821.1222915001,298.8508911132812,-225.0048828125,-214.9145812988281
2024-10-16 18:49:10.646 +0200,454,812821.1323725,0.0008697509765625,-0.0252532958984375,-0.99871826171875,812821.1311295001,0.0007238471880555153,-0.001647431403398514,-0.0004870921547990292,812821.1325695,298.7752075195312,-224.9555358886719,-214.8665771484375
2024-10-16 18:49:10.664 +0200,455,812821.1423215,0.0023651123046875,-0.025360107421875,-0.9997406005859375,812821.1410785001,0.001104945549741387,-0.002334260614588857,-0.002193379448726773,812821.1428495001,298.9298706054688,-225.0260009765625,-214.9221649169922
2024-10-16 18:49:10.666 +0200,456,812821.1522705001,0.0008697509765625,-0.026641845703125,-1.000747680664062,812821.1510275,0.00010386328358436,-0.00236222380772233,-0.002223473275080323,812821.1531275001,298.9191589355469,-224.9090423583984,-214.8073883056641
