loggingTime(txt),loggingSample(N),accelerometerTimestamp_sinceReboot(s),accelerometerAccelerationX(G),accelerometerAccelerationY(G),accelerometerAccelerationZ(G),gyroTimestamp_sinceReboot(s),gyroRotationX(rad/s),gyroRotationY(rad/s),gyroRotationZ(rad/s),magnetometerTimestamp_sinceReboot(s),magnetometerX(µT),magnetometerY(µT),magnetometerZ(µT)
2024-10-16 21:13:12.914 +0200,1,819906.2318230417,0.00201416015625,-0.0252227783203125,-0.9980926513671875,819906.2305800418,0.00352895469404757,-0.001573928166180849,-0.0006660565850324929,819906.2278250417,267.6036071777344,-112.1253662109375,-153.1260833740234
2024-10-16 21:13:12.915 +0200,2,819906.2417720418,0.00262451171875,-0.0252838134765625,-1.000823974609375,819906.2405290417,-0.001008539111353457,-0.002499110298231244,-0.001407746924087405,819906.2381040417,267.8970336914062,-112.1036529541016,-153.6787567138672
2024-10-16 21:13:12.916 +0200,3,819906.2517210417,0.001068115234375,-0.024505615234375,-1.002395629882812,819906.2504780417,0.0007632619817741215,-0.003292998764663935,0.001103347633033991,819906.2483840417,267.7879028320312,-112.3390655517578,-153.5434875488281
2024-10-16 21:13:12.916 +0200,4,819906.2616700417,0.0019378662109375,-0.0220489501953125,-0.9977569580078125,819906.2604270417,-0.0007643272401764989,-0.001675660954788327,-0.00190948648378253,819906.2586620417,267.8096618652344,-112.1116333007812,-153.3521881103516
2024-10-16 21:13:12.925 +0200,5,819906.2716190417,0.0016326904296875,-0.023956298828125,-0.9963531494140625,819906.2703760418,-0.001367000630125403,-0.002763828495517373,-0.001651958795264363,819906.2689420417,268.0428466796875,-112.0497436523438,-153.5107269287109
2024-10-16 21:13:12.935 +0200,6,819906.2815680418,0.0013275146484375,-0.02117919921875,-1.00006103515625,819906.2803250417,0.003084739437326789,-0.001679655630141497,-0.001029578037559986,819906.2792210417,267.90673828125,-112.0916442871094,-153.2890167236328
2024-10-16 21:13:12.945 +0200,7,819906.2915170417,0.001953125,-0.022247314453125,-1.001419067382812,819906.2902740417,-0.000853809411637485,-0.0003579288604669273,-0.003135872073471546,819906.2895000417,267.8281555175781,-112.0537109375,-153.3453216552734
2024-10-16 21:13:12.955 +0200,8,819906.3014660417,0.00225830078125,-0.02410888671875,-1.000015258789062,819906.3002230417,0.0009741843095980585,-0.00302162254229188,-0.001122256042435765,819906.2997800417,267.9051513671875,-112.1572723388672,-153.3522338867188
2024-10-16 21:13:12.965 +0200,9,819906.3114150417,0.00146484375,-0.0255889892578125,-0.9995880126953125,819906.3101720418,0.0008990831556729972,-0.001178182428702712,-0.0008855010382831097,819906.3100590417,267.9872436523438,-112.0726318359375,-153.2847137451172
2024-10-16 21:13:12.975 +0200,10,819906.3213640418,0.0033111572265625,-0.0255126953125,-1.0003662109375,819906.3201210417,0.002502838848158717,-0.0008247809601016343,-0.002801379188895226,819906.3203390418,267.9197692871094,-112.3721313476562,-153.6429138183594
2024-10-16 21:13:12.985 +0200,11,819906.3313130417,0.002044677734375,-0.0263824462890625,-0.9984130859375,819906.3300700417,0.0004548678989522159,-0.001886583282612264,-0.0008740494376979768,819906.3306180417,268.0220947265625,-112.2151031494141,-153.3988037109375
2024-10-16 21:13:12.995 +0200,12,819906.3412620417,0.0001678466796875,-0.026824951171875,-0.9970245361328125,819906.3400190417,-0.001170192961581051,0.0004596615908667445,-0.001558748190291226,819906.3408970417,267.931884765625,-112.1598052978516,-153.2498016357422
2024-10-16 21:13:13.005 +0200,13,819906.3512110417,0.0010528564453125,-0.02496337890625,-0.9989471435546875,819906.3499680418,0.001043426454998553,-0.002339853206649423,-0.000397077325033024,819906.3511750418,267.7525024414062,-112.3203277587891,-153.2025604248047
2024-10-16 21:13:13.015 +0200,14,819906.3611600418,0.000823974609375,-0.025665283203125,-1.000228881835938,819906.3599170417,0.0003134540456812829,-0.001655953587032855,0.0004559331864584237,819906.3614550417,267.7762145996094,-112.2173614501953,-153.4652862548828
2024-10-16 21:13:13.025 +0200,15,819906.3711090417,0.0030517578125,-0.024322509765625,-0.99908447265625,819906.3698660417,-0.0001757686259225011,-0.001744636800140142,-0.001479386002756655,819906.3717340417,267.7109985351562,-112.2575073242188,-153.1380920410156
2024-10-16 21:13:13.035 +0200,16,819906.3810570417,0.003631591796875,-0.022369384765625,-0.9984130859375,819906.3798140417,0.0004154531343374401,-0.002474342938512564,-0.0006213154993019998,819906.3820130418,267.95947265625,-112.2155456542969,-153.5889587402344
2024-10-16 21:13:13.044 +0200,17,819906.3910060417,0.0025177001953125,-0.0232086181640625,-0.9993896484375,819906.3897630417,-0.0005046690348535776,-0.003131877398118377,-0.0004956142511218786,819906.3922910417,267.8041076660156,-112.1916656494141,-153.2826843261719
2024-10-16 21:13:13.058 +0200,18,819906.4009550418,0.00408935546875,-0.0221710205078125,-1.00140380859375,819906.3997120417,-0.002345446031540632,-0.004577441141009331,-0.002078064484521747,819906.4025690417,267.9097290039062,-111.9556579589844,-153.2777557373047
2024-10-16 21:13:13.065 +0200,19,819906.4109040417,0.003753662109375,-0.0228118896484375,-1.000518798828125,819906.4096610417,-0.0007427555974572897,-0.003549993736669421,-0.000461259507574141,819906.4128480417,267.9532165527344,-112.1200256347656,-153.3321380615234
2024-10-16 21:13:13.075 +0200,20,819906.4208530417,0.0018768310546875,-0.023101806640625,-0.99853515625,819906.4196100417,6.178533658385277e-05,-0.001943574985489249,-0.001199487713165581,819906.4128480417,267.9532165527344,-112.1200256347656,-153.3321380615234
2024-10-16 21:13:13.084 +0200,21,819906.4308020417,0.0015869140625,-0.0235748291015625,-0.999603271484375,819906.4295590417,0.001100950757972896,-0.003451723139733076,-0.002605104120448232,819906.4231260418,267.9270629882812,-112.0269470214844,-153.2884368896484
2024-10-16 21:13:13.094 +0200,22,819906.4407510418,0.002105712890625,-0.02392578125,-1.000091552734375,819906.4395080417,7.430219557136297e-05,-0.004706604406237602,-0.0007392935222014785,819906.4334050417,267.7426147460938,-112.2791900634766,-153.1826324462891
2024-10-16 21:13:13.104 +0200,23,819906.4507000417,0.000640869140625,-0.0252685546875,-1.0006103515625,819906.4494570417,-0.0002229065867140889,-0.004643754102289677,-0.001777926343493164,819906.4436840417,267.8048095703125,-112.1039733886719,-153.3499908447266
2024-10-16 21:13:13.121 +0200,24,819906.4606490417,-0.0008697509765625,-0.0268402099609375,-0.9986114501953125,819906.4594060418,0.001090830774046481,-0.001735582016408443,-0.0004383563064038754,819906.4539630418,267.9157104492188,-112.0911712646484,-153.4297943115234
2024-10-16 21:13:13.124 +0200,25,819906.4705980417,-0.000274658203125,-0.025543212890625,-0.9994659423828125,819906.4693550417,-0.0003709783486556262,-0.001922535942867398,-0.0007829693495295942,819906.4642420417,267.8594970703125,-112.0973663330078,-153.3750305175781
2024-10-16 21:13:13.134 +0200,26,819906.4805470417,0.000244140625,-0.024871826171875,-0.99847412109375,819906.4793040417,0.001690041972324252,-0.003200054401531816,-4.554005499812774e-05,819906.4745210417,267.8818969726562,-111.9625396728516,-153.3122406005859
2024-10-16 21:13:13.144 +0200,27,819906.4904960417,-0.000244140625,-0.0237274169921875,-0.9988250732421875,819906.4892530417,-0.001517735538072884,-0.0009305084822699428,-0.001702026231214404,819906.4848000418,267.7969360351562,-112.1126708984375,-153.2839813232422
2024-10-16 21:13:13.154 +0200,28,819906.5004450417,0.003082275390625,-0.0242919921875,-0.9999847412109375,819906.4992020418,0.002002963330596685,-0.002355033298954368,-0.002413356676697731,819906.4950800417,267.853271484375,-112.2207336425781,-153.3498687744141
2024-10-16 21:13:13.164 +0200,29,819906.5103940417,0.005950927734375,-0.02276611328125,-0.9996795654296875,819906.5091510417,0.002034388715401292,-0.00386877404525876,-0.002080727834254503,819906.5053590417,267.9118041992188,-112.1866455078125,-153.5161590576172
2024-10-16 21:13:13.179 +0200,30,819906.5203430417,0.004638671875,-0.022796630859375,-0.99822998046875,819906.5191000417,0.0008833705214783549,-0.003916977439075708,-0.002911900402978063,819906.5156380417,267.7877197265625,-112.2697448730469,-153.3908081054688
2024-10-16 21:13:13.184 +0200,31,819906.5302920417,0.005218505859375,-0.022735595703125,-1.000579833984375,819906.5290490417,0.0008751147543080151,-0.0008878979133442044,-0.001885518082417548,819906.5259170417,267.8045959472656,-112.2909088134766,-153.5051116943359
2024-10-16 21:13:13.194 +0200,32,819906.5402410417,0.0051422119140625,-0.0236968994140625,-1.001617431640625,819906.5389980418,-0.0003233077586628497,-0.001001881202682853,-0.0001664475712459534,819906.5361960417,268.1528930664062,-112.0003814697266,-153.5083312988281
2024-10-16 21:13:13.204 +0200,33,819906.5501900418,0.0043487548828125,-0.0245361328125,-1.00030517578125,819906.5489470417,0.0006146575906313956,-0.002444515470415354,0.0003611246356740594,819906.5464750418,267.8539428710938,-112.2215270996094,-153.6198883056641
2024-10-16 21:13:13.214 +0200,34,819906.5601390417,0.001190185546875,-0.0251312255859375,-0.9994354248046875,819906.5588960417,0.001014664419926703,-0.002517486223950982,-0.001938248635269701,819906.5567530417,267.9967651367188,-112.1500396728516,-153.4145812988281
2024-10-16 21:13:13.224 +0200,35,819906.5700870417,0.0011138916015625,-0.02496337890625,-0.99932861328125,819906.5688440417,0.00185063062235713,-0.002321477513760328,0.0004516721237450838,819906.5670320417,267.9247741699219,-112.1746215820312,-153.2939147949219
2024-10-16 21:13:13.238 +0200,36,819906.5800360417,-0.00067138671875,-0.0262603759765625,-0.998748779296875,819906.5787930418,-0.0007582019316032529,0.0002476739755365998,-0.00162399560213089,819906.5773110418,268.087890625,-112.1227111816406,-153.5463714599609
2024-10-16 21:13:13.244 +0200,37,819906.5899850418,0.00018310546875,-0.0253753662109375,-0.9981842041015625,819906.5887420417,-0.0003528688393998891,-0.003581152763217688,-0.0007337008719332516,819906.5875900417,267.8362426757812,-112.1569213867188,-153.4689788818359
2024-10-16 21:13:13.254 +0200,38,819906.5999340417,-0.001251220703125,-0.0243377685546875,-0.9977874755859375,819906.5986910417,-0.001432248041965067,0.0002695118892006576,-0.001180579303763807,819906.5978690417,267.8520202636719,-112.1419525146484,-153.4142913818359
2024-10-16 21:13:13.264 +0200,39,819906.6098830417,-0.0011444091796875,-0.024444580078125,-1,819906.6086400417,-0.0003440804139245301,-0.0005102616851218045,-5.992112346575595e-05,819906.6081480418,267.9163513183594,-112.1165161132812,-153.3156890869141
2024-10-16 21:13:13.273 +0200,40,819906.6198320417,0.000213623046875,-0.0230865478515625,-0.9986724853515625,819906.6185890418,0.001719603082165122,-0.002432531211525202,-0.002232527825981379,819906.6184270417,267.7792358398438,-112.2310485839844,-153.2920227050781
2024-10-16 21:13:13.283 +0200,41,819906.6297810418,0.0019683837890625,-0.02197265625,-0.9982757568359375,819906.6285380417,-0.0001336906861979514,-0.002098038326948881,-0.001883653807453811,819906.6287060417,267.8096923828125,-112.1606597900391,-153.3669586181641
2024-10-16 21:13:13.293 +0200,42,819906.6397300417,0.0029144287109375,-0.0218048095703125,-1.00067138671875,819906.6384870417,0.0004633900243788958,-0.003690342186018825,-3.462109361862531e-06,819906.6389860418,267.8333129882812,-112.1826782226562,-153.5815582275391
2024-10-16 21:13:13.303 +0200,43,819906.6496790417,0.00421142578125,-0.0229949951171875,-0.999969482421875,819906.6484360417,0.0006154565489850938,-0.0009382316493429244,-0.002606169320642948,819906.6492650417,267.6884765625,-112.2215576171875,-153.5173034667969
2024-10-16 21:13:13.313 +0200,44,819906.6596280417,0.006103515625,-0.0249481201171875,-1.000015258789062,819906.6583850418,0.001416002749465406,-0.001012533786706626,-0.0013928331900388,819906.6595460417,267.8490600585938,-112.3326568603516,-153.4401245117188
2024-10-16 21:13:13.323 +0200,45,819906.6695770418,0.0031890869140625,-0.024993896484375,-1.000137329101562,819906.6683340417,0.0008972189389169216,-0.002181927906349301,-0.0006295712664723396,819906.6698250417,267.7559814453125,-112.2891845703125,-153.3407135009766
2024-10-16 21:13:13.333 +0200,46,819906.6795260417,0.0036163330078125,-0.025604248046875,-1.000274658203125,819906.6782830417,1.624528340471443e-05,-0.0009795106016099453,-0.001224255189299583,819906.6801030417,267.7393188476562,-112.2703552246094,-153.1793975830078
2024-10-16 21:13:13.343 +0200,47,819906.6894750417,0.003265380859375,-0.0254974365234375,-0.9975433349609375,819906.6882320417,0.0002354234457015991,-0.0008013451588340104,-0.0003813646617345512,819906.6903820417,267.7519836425781,-112.2838897705078,-153.3337860107422
2024-10-16 21:13:13.358 +0200,48,819906.6994240417,0.0024261474609375,-0.0253753662109375,-0.99981689453125,819906.6981810417,0.0003153182624373585,-0.0007685882737860084,-0.00133424368686974,819906.7006590418,267.7753295898438,-112.2933044433594,-153.3848876953125
2024-10-16 21:13:13.363 +0200,49,819906.7093730418,3.0517578125e-05,-0.02349853515625,-0.9983673095703125,819906.7081300417,-4.101268132217228e-05,-0.002263953210785985,-0.002067412016913295,819906.7109380417,267.7849731445312,-112.3377532958984,-153.350830078125
2024-10-16 21:13:13.373 +0200,50,819906.7193220417,0.000732421875,-0.0250091552734375,-0.9993438720703125,819906.7180790417,0.001269528875127435,-0.001853293739259243,0.0001280980504816398,819906.7212160417,267.5902404785156,-112.2719268798828,-153.4905700683594
2024-10-16 21:13:13.383 +0200,51,819906.7292710417,3.0517578125e-05,-0.023651123046875,-0.9988861083984375,819906.7280280417,0.002212554216384888,-0.002322542713955045,-0.000600809114985168,819906.7212160417,267.5902404785156,-112.2719268798828,-153.4905700683594
2024-10-16 21:13:13.393 +0200,52,819906.7392200417,-0.000335693359375,-0.0228118896484375,-0.99884033203125,819906.7379770417,0.001179780345410109,-0.001608283026143909,-0.001574993482790887,819906.7314930417,267.4989624023438,-112.2970275878906,-153.3588104248047
2024-10-16 21:13:13.403 +0200,53,819906.7491690418,0.0001373291015625,-0.023223876953125,-1.000335693359375,819906.7479260417,0.001898034941405058,-0.002491120947524905,-0.00256009679287672,819906.7417700418,267.6693115234375,-112.2249145507812,-153.4189147949219
2024-10-16 21:13:13.420 +0200,54,819906.7591180417,0.0009307861328125,-0.0231475830078125,-0.9997711181640625,819906.7578750417,0.002972354181110859,-0.002806705422699451,-0.002596582053229213,819906.7520480417,267.6696166992188,-112.3037261962891,-153.1125335693359
2024-10-16 21:13:13.423 +0200,55,819906.769067,0.0028076171875,-0.0231170654296875,-0.9997711181640625,819906.7678240001,0.003557450603693724,-0.00381444557569921,-0.002100435085594654,819906.7623260417,267.4956359863281,-112.3285064697266,-153.4907073974609
2024-10-16 21:13:13.433 +0200,56,819906.7790160001,0.003570556640625,-0.0219573974609375,-0.99920654296875,819906.7777730001,0.001664475654251873,-0.001245027757249773,0.001906290650367737,819906.772603,267.6221008300781,-112.4264526367188,-153.2593078613281
2024-10-16 21:13:13.443 +0200,57,819906.7889640001,0.0038299560546875,-0.02349853515625,-0.99981689453125,819906.787721,-0.0009462211164645851,-0.003372360952198505,-0.001818672637455165,819906.7828810001,267.4732666015625,-112.3097381591797,-153.4675903320312
2024-10-16 21:13:13.452 +0200,58,819906.798913,0.0047149658203125,-0.0244903564453125,-0.9996490478515625,819906.79767,0.0001347559446003288,-0.004274373408406973,-0.002695385366678238,819906.793159,267.5736694335938,-112.3274536132812,-153.3628387451172
2024-10-16 21:13:13.463 +0200,59,819906.808862,0.0055389404296875,-0.025360107421875,-0.9997100830078125,819906.8076190001,-0.0001667138858465478,-0.001240234123542905,0.0003275688213761896,819906.803437,267.5408935546875,-112.3461303710938,-153.2565155029297
2024-10-16 21:13:13.472 +0200,60,819906.8188110001,0.0044097900390625,-0.0260467529296875,-0.9995269775390625,819906.8175680001,-0.002535861916840076,0.0004721784498542547,-0.004992628004401922,819906.8137150001,267.7625122070312,-112.3101806640625,-153.5005493164062
2024-10-16 21:13:13.487 +0200,61,819906.8287600001,0.0026092529296875,-0.0261077880859375,-0.9987640380859375,819906.827517,0.0004165183927398175,-0.002626942005008459,0.000407463638111949,819906.8239920001,267.6248779296875,-112.3358306884766,-153.4552612304688
2024-10-16 21:13:13.492 +0200,62,819906.838709,0.0015106201171875,-0.0253448486328125,-0.999420166015625,819906.837466,0.003086070995777845,-0.003185939509421587,-0.0002522013674024493,819906.8342690001,267.8041381835938,-112.1199493408203,-153.3607940673828
2024-10-16 21:13:13.502 +0200,63,819906.848658,1.52587890625e-05,-0.0233001708984375,-0.998016357421875,819906.8474150001,-0.00065460498444736,-0.000749679864384234,-0.001858620089478791,819906.844547,267.7860412597656,-112.1751098632812,-153.2766418457031
2024-10-16 21:13:13.512 +0200,64,819906.8586070001,0.0016937255859375,-0.0235748291015625,-0.9974212646484375,819906.8573640001,0.003025617217645049,-0.001885251724161208,-0.0007414240390062332,819906.854825,267.7307739257812,-112.1066284179688,-153.2347869873047
2024-10-16 21:13:13.522 +0200,65,819906.8685560001,-0.0016632080078125,-0.0226287841796875,-0.9987335205078125,819906.867313,-0.002160090021789074,-0.004146808292716742,-0.003525758860632777,819906.8651020001,267.7653198242188,-112.2522735595703,-153.8108520507812
2024-10-16 21:13:13.539 +0200,66,819906.878505,0.0001983642578125,-0.0222625732421875,-0.998382568359375,819906.877262,-0.0007752461824566126,-0.001573661924339831,-0.000904409505892545,819906.8753800001,267.7740478515625,-112.0954742431641,-153.5243530273438
2024-10-16 21:13:13.542 +0200,67,819906.888454,0.0012969970703125,-0.0220489501953125,-0.9990386962890625,819906.8872110001,0.001996838254854083,-0.001842641155235469,-0.002620550571009517,819906.885657,267.6527709960938,-112.1148529052734,-153.2684478759766
2024-10-16 21:13:13.552 +0200,68,819906.8984030001,0.0017242431640625,-0.0229339599609375,-1.000717163085938,819906.8971600001,0.0004146541759837419,-0.001002413802780211,8.096009696600959e-05,819906.895936,267.5885009765625,-112.2859954833984,-153.5363006591797
2024-10-16 21:13:13.562 +0200,69,819906.9083520001,0.0022125244140625,-0.0232696533203125,-0.9999847412109375,819906.907109,0.001319862669333816,-0.003311907174065709,-0.001763278967700899,819906.9062150001,267.8409729003906,-112.2112426757812,-153.4253540039062
2024-10-16 21:13:13.572 +0200,70,819906.918301,0.0032501220703125,-0.024169921875,-1.000839233398438,819906.917058,0.003714843420311809,-0.001728924224153161,0.001443433342501521,819906.916494,267.7640380859375,-112.0208129882812,-153.6118621826172
2024-10-16 21:13:13.582 +0200,71,819906.92825,0.00445556640625,-0.025421142578125,-1.00054931640625,819906.9270070001,-0.001500158687122166,-0.0009294432238675654,0.000672448193654418,819906.926773,268.0021362304688,-112.1714782714844,-153.8129272460938
2024-10-16 21:13:13.592 +0200,72,819906.9381990001,0.004241943359375,-0.02593994140625,-1.000076293945312,819906.936956,-0.0005041363765485585,-0.001750495750457048,0.001228516222909093,819906.9370510001,267.7328491210938,-112.1471710205078,-153.5249328613281
2024-10-16 21:13:13.603 +0200,73,819906.9481480001,0.0034637451171875,-0.02630615234375,-1.000686645507812,819906.946905,0.001349690021015704,-0.002924150787293911,-0.001854625414125621,819906.9473290001,267.7427368164062,-112.2246246337891,-153.438720703125
2024-10-16 21:13:13.612 +0200,74,819906.958097,0.0039825439453125,-0.0270538330078125,-0.9989776611328125,819906.9568540001,0.001004810677841306,0.0003403519804123789,-0.004293282050639391,819906.957608,267.822265625,-112.1076049804688,-153.2845153808594
2024-10-16 21:13:13.622 +0200,75,819906.968046,0.0026092529296875,-0.0251922607421875,-0.999420166015625,819906.9668030001,-0.002486327197402716,-0.001541171339340508,-0.001391235389746726,819906.9678870001,267.793212890625,-112.1439666748047,-153.4945678710938
2024-10-16 21:13:13.632 +0200,76,819906.9779940001,0.000946044921875,-0.02337646484375,-1.00018310546875,819906.976751,0.001365668955259025,-0.002395247109234333,-0.0003845604660455137,819906.9781660001,267.6835327148438,-112.1539154052734,-153.2791748046875
2024-10-16 21:13:13.642 +0200,77,819906.987943,-0.0006256103515625,-0.0239715576171875,-0.999664306640625,819906.9867,-0.001510278671048582,-0.002262088935822248,-0.0004279699933249503,819906.988445,267.7783813476562,-112.1592407226562,-153.6183319091797
2024-10-16 21:13:13.658 +0200,78,819906.997892,-0.001129150390625,-0.023590087890625,-0.99908447265625,819906.9966490001,-0.001457281759940088,-0.002137985778972507,-0.002127599436789751,819906.9987230001,267.9101257324219,-111.9599609375,-153.4345550537109
2024-10-16 21:13:13.661 +0200,79,819907.0078410001,-0.000396728515625,-0.02215576171875,-1.000396728515625,819907.0065980001,0.003569168504327536,-0.0002641855680849403,1.065264405042399e-05,819907.0090020001,267.7673950195312,-112.1613311767578,-153.4286193847656
2024-10-16 21:13:13.671 +0200,80,819907.0177900001,0.0004730224609375,-0.02288818359375,-0.9993743896484375,819907.016547,-7.190534961409867e-05,-0.002670351648703218,0.0005406216951087117,819907.019281,267.7350158691406,-112.0889739990234,-153.5455322265625
2024-10-16 21:13:13.681 +0200,81,819907.027739,0.000762939453125,-0.0229644775390625,-0.999114990234375,819907.016547,-7.190534961409867e-05,-0.002670351648703218,0.0005406216951087117,819907.0295600001,267.8211059570312,-112.1882476806641,-153.3316345214844
2024-10-16 21:13:13.691 +0200,82,819907.037688,0.0023345947265625,-0.02294921875,-1.000015258789062,819907.0364450001,0.001252218382433057,-0.001982190879061818,-0.002620017854496837,819907.0295600001,267.8211059570312,-112.1882476806641,-153.3316345214844
2024-10-16 21:13:13.701 +0200,83,819907.0476370001,0.00457763671875,-0.025726318359375,-1.000640869140625,819907.0463940001,0.001502022845670581,-0.0004719121498055756,0.001190166687592864,819907.0398380001,267.68701171875,-112.2383117675781,-153.3097229003906
2024-10-16 21:13:13.711 +0200,84,819907.0575860001,0.0047454833984375,-0.0257720947265625,-0.9994049072265625,819907.056343,0.002143844729289412,-0.003242398612201214,-0.004397677723318338,819907.050117,267.691162109375,-112.2929534912109,-153.4986877441406
2024-10-16 21:13:13.721 +0200,85,819907.067535,0.0054779052734375,-0.0253753662109375,-0.999420166015625,819907.066292,0.003158775391057134,-0.0006711165769957006,-0.00216168793849647,819907.060395,267.7621459960938,-112.1319274902344,-153.3308258056641
2024-10-16 21:13:13.731 +0200,86,819907.077484,0.0044097900390625,-0.025970458984375,-1.000259399414062,819907.0762410001,-0.001878061215393245,-0.000251402409048751,-0.0005305017111822963,819907.0706740001,267.6841125488281,-112.2991638183594,-153.2077331542969
2024-10-16 21:13:13.741 +0200,87,819907.0874330001,0.0029296875,-0.024078369140625,-0.99969482421875,819907.0861900001,-1.997370782191865e-05,-0.002759833820164204,-0.001911084400489926,819907.0809510001,267.9100341796875,-112.0274505615234,-153.2847290039062
2024-10-16 21:13:13.751 +0200,88,819907.0973820001,0.00347900390625,-0.0238037109375,-0.9991912841796875,819907.096139,0.00358807691372931,-0.003252518596127629,-0.0008847020799294114,819907.091229,267.8388671875,-112.0965881347656,-153.2716827392578
2024-10-16 21:13:13.761 +0200,89,819907.107331,0.00128173828125,-0.0233917236328125,-0.9992523193359375,819907.106088,-0.00151081127114594,-0.002493784064427018,-0.0005696501466445625,819907.101507,267.8639526367188,-112.091796875,-153.5458679199219
2024-10-16 21:13:13.778 +0200,90,819907.11728,-0.000152587890625,-0.0235595703125,-1.000198364257812,819907.1160370001,0.0003661846567410976,-0.002518817782402039,-0.001425856491550803,819907.1117860001,267.6829223632812,-112.1768035888672,-153.2331848144531
2024-10-16 21:13:13.781 +0200,91,819907.1272290001,0.0009613037109375,-0.02154541015625,-0.9996337890625,819907.1259860001,0.001761947409249842,-0.002056226599961519,-0.001725994632579386,819907.122064,267.7046508789062,-111.9724884033203,-153.2759704589844
2024-10-16 21:13:13.791 +0200,92,819907.1371780001,-0.0011444091796875,-0.0225830078125,-1.000167846679688,819907.135935,-0.0001059938076650724,-0.002750512678176165,-0.001055144472047687,819907.132343,267.9132080078125,-112.0821228027344,-153.5288543701172
2024-10-16 21:13:13.801 +0200,93,819907.147127,-7.62939453125e-05,-0.023162841796875,-0.999603271484375,819907.145884,0.0008221178431995213,-0.0005725796218030155,-0.0008527441532351077,819907.1426210001,267.814453125,-112.107421875,-153.5077362060547
2024-10-16 21:13:13.811 +0200,94,819907.157076,0.0007171630859375,-0.0229034423828125,-0.99951171875,819907.1558330001,0.001941444468684494,-0.001531317597255111,-0.00096086849225685,819907.1529000001,267.701171875,-112.0422210693359,-153.3591156005859
2024-10-16 21:13:13.821 +0200,95,819907.1670250001,0.0015106201171875,-0.0242767333984375,-0.999603271484375,819907.1657820001,0.0020809939596802,-0.001363272196613252,-0.003197391284629703,819907.163178,267.8577270507812,-112.0661010742188,-153.3961791992188
2024-10-16 21:13:13.839 +0200,96,819907.1769730001,0.003509521484375,-0.0257568359375,-0.9990997314453125,819907.17573,0.001424524816684425,-0.0008942894637584686,-0.001352353137917817,819907.173456,267.8845520019531,-112.1846313476562,-153.4383850097656
2024-10-16 21:13:13.841 +0200,97,819907.186922,0.0018157958984375,-0.02593994140625,-0.999420166015625,819907.1856790001,-0.0004474110610317439,-0.002232527825981379,-0.0009478190331719816,819907.1837340001,267.669189453125,-112.0868835449219,-153.4586029052734
2024-10-16 21:13:13.851 +0200,98,819907.196871,0.00408935546875,-0.0252685546875,-1.000289916992188,819907.1956280001,-0.000113716974738054,-0.002919889753684402,-0.0002167813072446734,819907.194012,267.6451721191406,-112.1198425292969,-153.4187469482422
2024-10-16 21:13:13.860 +0200,99,819907.2068200001,0.0059051513671875,-0.026123046875,-0.9996795654296875,819907.205577,0.002670618006959558,-0.003602990647777915,-0.0001555285998620093,819907.20429,267.672607421875,-112.1300354003906,-153.2922973632812
2024-10-16 21:13:13.870 +0200,100,819907.216769,0.0041351318359375,-0.0259552001953125,-0.998870849609375,819907.215526,0.003587278071790934,-0.001795769552700222,-0.001022653887048364,819907.2145680001,267.7621459960938,-112.1517791748047,-153.3667755126953
2024-10-16 21:13:13.880 +0200,101,819907.226718,0.0044097900390625,-0.025726318359375,-0.9991455078125,819907.2254750001,0.002471413463354111,-0.002520948182791471,-0.001308144768700004,819907.2248470001,267.8306579589844,-111.9728546142578,-153.1560821533203
2024-10-16 21:13:13.891 +0200,102,819907.2366670001,0.0036468505859375,-0.023162841796875,-0.9990386962890625,819907.2354240001,0.001843173755332828,-0.001357413246296346,-0.00185036426410079,819907.235127,267.8385009765625,-112.1579437255859,-153.3336181640625
2024-10-16 21:13:13.904 +0200,103,819907.2466160001,0.0024871826171875,-0.022369384765625,-0.9982757568359375,819907.245373,0.001487109111621976,-0.00166580721270293,0.0004924184759147465,819907.2454070001,267.80517578125,-112.2140045166016,-153.3468017578125
2024-10-16 21:13:13.910 +0200,104,819907.256565,0.0003509521484375,-0.0218048095703125,-0.998443603515625,819907.255322,-0.0004772384709212929,-0.003239202778786421,-0.001459678635001183,819907.2556860001,267.7421264648438,-111.9945373535156,-153.3922576904297
2024-10-16 21:13:13.920 +0200,105,819907.266514,-4.57763671875e-05,-0.020721435546875,-0.998626708984375,819907.2652710001,-4.793690095539205e-06,-0.004009655211120844,-0.001638909336179495,819907.265966,267.9074096679688,-111.9781036376953,-153.2725830078125
2024-10-16 21:13:13.930 +0200,106,819907.2764630001,-0.001617431640625,-0.023345947265625,-0.9986724853515625,819907.2752200001,0.00186341383960098,-0.001939313835464418,-0.0005440838285721838,819907.2762450001,267.7098693847656,-112.0725860595703,-153.5036163330078
2024-10-16 21:13:13.940 +0200,107,819907.2864120001,0.000396728515625,-0.023773193359375,-0.9991455078125,819907.285169,0.002176601439714432,-0.002926547778770328,-0.0006673881434835494,819907.286524,267.7141723632812,-112.2201538085938,-153.3333587646484
2024-10-16 21:13:13.957 +0200,108,819907.296361,0.00152587890625,-0.024322509765625,-0.99951171875,819907.295118,-0.002508165081962943,7.936220208648592e-05,-0.001756354700773954,819907.296803,267.6671447753906,-112.229736328125,-153.4794006347656
2024-10-16 21:13:13.960 +0200,109,819907.30631,-1.52587890625e-05,-0.0242919921875,-0.9991455078125,819907.3050670001,0.00276542641222477,-0.0009302421822212636,-0.003239469137042761,819907.3070810001,267.6717529296875,-112.1232757568359,-153.4154968261719
2024-10-16 21:13:13.970 +0200,110,819907.3162590001,0.0039520263671875,-0.0253448486328125,-0.99932861328125,819907.3150160001,0.002811499172821641,-0.002858370775356889,-0.001824265345931053,819907.3173600001,267.6002197265625,-112.1569213867188,-153.42626953125
2024-10-16 21:13:13.980 +0200,111,819907.3262080001,0.00341796875,-0.02484130859375,-1.00030517578125,819907.324965,0.0007843009079806507,-0.002902046544477344,-0.001972337020561099,819907.327639,267.6747741699219,-112.1393127441406,-153.4814147949219
2024-10-16 21:13:13.990 +0200,112,819907.336157,0.0020294189453125,-0.0241851806640625,-0.9984588623046875,819907.334914,0.001300687901675701,-0.003348392434418201,-0.002535861916840076,819907.3379190001,267.5839538574219,-112.1301422119141,-153.6782531738281
2024-10-16 21:13:14.000 +0200,113,819907.346106,0.0044403076171875,-0.0244903564453125,-0.9987335205078125,819907.3448630001,0.001687378855422139,-0.002407497493550181,-0.00256409146822989,819907.3379190001,267.5839538574219,-112.1301422119141,-153.6782531738281
2024-10-16 21:13:14.011 +0200,114,819907.3560550001,0.0037841796875,-0.023590087890625,-0.999542236328125,819907.3548120001,-0.001906024408526719,-0.002144909929484129,-0.001337439520284534,819907.348198,267.8135375976562,-112.0960083007812,-153.5760650634766
2024-10-16 21:13:14.020 +0200,115,819907.3660040001,0.00360107421875,-0.0227508544921875,-1.000411987304688,819907.364761,0.0009134642314165831,-0.005415804218500853,-0.002610164228826761,819907.358477,267.769287109375,-111.9226531982422,-153.3396148681641
2024-10-16 21:13:14.030 +0200,116,819907.375952,0.00299072265625,-0.0230865478515625,-0.998443603515625,819907.374709,0.002888464601710439,-0.004172108136117458,-0.001942243310622871,819907.3687570001,267.642578125,-112.210693359375,-153.5404052734375
2024-10-16 21:13:14.040 +0200,117,819907.385901,0.002532958984375,-0.023284912109375,-1.000259399414062,819907.3846580001,0.000925448490306735,-0.001944906543940306,-0.003054645843803883,819907.3790350001,267.751708984375,-112.1555938720703,-153.5210266113281
2024-10-16 21:13:14.049 +0200,118,819907.3958500001,0.00250244140625,-0.0242462158203125,-1.000137329101562,819907.3946070001,-0.001370462705381215,-0.005050152540206909,-0.001717738923616707,819907.389315,267.7591552734375,-112.0859375,-153.4642181396484
2024-10-16 21:13:14.059 +0200,119,819907.4057990001,0.0002288818359375,-0.023681640625,-0.9996337890625,819907.404556,0.0004865595255978405,-0.002799514913931489,-0.00132598786149174,819907.3995940001,267.8676147460938,-112.0196685791016,-153.4169464111328
2024-10-16 21:13:14.077 +0200,120,819907.415748,0.000885009765625,-0.0252532958984375,-0.9987640380859375,819907.414505,0.003640541108325124,-0.003630421124398708,-0.001102016074582934,819907.4098720001,267.9015502929688,-111.95751953125,-153.2027740478516
2024-10-16 21:13:14.079 +0200,121,819907.425697,0.0012969970703125,-0.024658203125,-0.999420166015625,819907.4244540001,0.001499359728768468,-0.0007954862085171044,-0.001356347929686308,819907.420152,267.7569274902344,-112.0326843261719,-153.4842987060547
2024-10-16 21:13:14.089 +0200,122,819907.4356460001,0.0013275146484375,-0.025726318359375,-0.9982757568359375,819907.4344030001,0.0008996158139780164,-0.003377420827746391,-0.0005797701887786388,819907.4304320001,267.795654296875,-112.1181030273438,-153.4140777587891
2024-10-16 21:13:14.099 +0200,123,819907.4455950001,0.001861572265625,-0.0260162353515625,-0.99884033203125,819907.444352,-0.0004159857635386288,-0.0005675196298398077,0.001843173755332828,819907.440713,267.87109375,-112.2036285400391,-153.4481964111328
2024-10-16 21:13:14.109 +0200,124,819907.455544,0.003631591796875,-0.0252685546875,-0.99853515625,819907.4543010001,0.0003813646617345512,-0.0009331716573797166,-0.002640257822349668,819907.4509930001,267.829833984375,-112.1071014404297,-153.2616424560547
2024-10-16 21:13:14.119 +0200,125,819907.465493,0.00341796875,-0.0245208740234375,-0.9976654052734375,819907.4642500001,0.0003299656673334539,-0.002124669961631298,-0.001730255782604218,819907.461273,267.6617431640625,-112.2001342773438,-153.4851989746094
2024-10-16 21:13:14.138 +0200,126,819907.4754420001,0.004119873046875,-0.023345947265625,-0.999542236328125,819907.474199,-0.0007853662245906889,6.178533658385277e-05,-0.003106310963630676,819907.471553,267.8147583007812,-112.0064697265625,-153.3013763427734
2024-10-16 21:13:14.139 +0200,127,819907.4853910001,0.0020294189453125,-0.0241851806640625,-0.99810791015625,819907.484148,7.430219557136297e-05,-0.003667172743007541,-0.003399525070562959,819907.4818320001,267.735595703125,-112.041748046875,-153.3721008300781
2024-10-16 21:13:14.149 +0200,128,819907.49534,0.0038909912109375,-0.0233306884765625,-0.998443603515625,819907.484148,7.430219557136297e-05,-0.003667172743007541,-0.003399525070562959,819907.492111,267.62548828125,-112.1085815429688,-153.0346984863281
2024-10-16 21:13:14.159 +0200,129,819907.505289,0.0031890869140625,-0.021453857421875,-1.0003662109375,819907.5040460001,0.002372077666223049,-0.002950782421976328,-0.001789910602383316,819907.50239,267.8485412597656,-112.1670989990234,-153.3489379882812
2024-10-16 21:13:14.169 +0200,130,819907.5152380001,0.0018157958984375,-0.0227813720703125,-0.9985504150390625,819907.513995,-0.000478836358524859,-0.002250104676932096,-0.002639192622154951,819907.5126680001,267.9065551757812,-112.0984344482422,-153.10498046875
2024-10-16 21:13:14.179 +0200,131,819907.5251870001,0.001617431640625,-0.0227508544921875,-0.9993133544921875,819907.523944,-0.001299089984968305,-0.00115421402733773,-0.001181111903861165,819907.5229470001,267.6566162109375,-112.1972198486328,-153.2996520996094
2024-10-16 21:13:14.192 +0200,132,819907.535136,0.0012664794921875,-0.0240631103515625,-0.999725341796875,819907.5338930001,0.00253479671664536,-0.00193452020175755,-0.001138501334935427,819907.533226,267.7857360839844,-111.8983917236328,-153.1520690917969
2024-10-16 21:13:14.204 +0200,133,819907.5450850001,0.0003814697265625,-0.024932861328125,-0.9983978271484375,819907.5438420001,0.0004575310740619898,-0.004279699642211199,-0.001266599399968982,819907.5435050001,267.8206176757812,-112.1572875976562,-153.3808898925781
2024-10-16 21:13:14.209 +0200,134,819907.5550340001,0.00018310546875,-0.024658203125,-0.998809814453125,819907.553791,0.0001603222917765379,-0.0006700513185933232,0.001265001483261585,819907.5537840001,267.8396606445312,-112.1434173583984,-153.2104034423828
2024-10-16 21:13:14.219 +0200,135,819907.564983,0.0006256103515625,-0.025360107421875,-0.9994049072265625,819907.56374,0.001396561623550951,-0.00245117349550128,-0.001740375766530633,819907.564062,267.7716979980469,-111.9961242675781,-153.1987762451172
2024-10-16 21:13:14.229 +0200,136,819907.574931,0.0019683837890625,-0.02398681640625,-0.99993896484375,819907.5736880001,0.0001645833544898778,-0.003016029950231314,0.001171790878288448,819907.5743400001,267.7922058105469,-111.987060546875,-153.2493896484375
2024-10-16 21:13:14.239 +0200,137,819907.5848800001,0.00390625,-0.02313232421875,-0.999267578125,819907.5836370001,0.002084456151351333,-0.002408829284831882,-0.005143895745277405,819907.5846190001,267.9186401367188,-112.0735015869141,-153.3249969482422
2024-10-16 21:13:14.258 +0200,138,819907.5948290001,0.0030059814453125,-0.0246429443359375,-0.9989013671875,819907.593586,0.001256479416042566,-0.004013916477560997,-0.0004364920896477997,819907.594898,267.7322387695312,-112.1090698242188,-153.3871002197266
2024-10-16 21:13:14.258 +0200,139,819907.604778,0.0036163330078125,-0.0244140625,-0.999755859375,819907.603535,0.001558748190291226,-0.001318530994467437,-0.0003523362101987004,819907.605177,267.7494506835938,-112.0316009521484,-153.1493377685547
2024-10-16 21:13:14.269 +0200,140,819907.614727,0.003997802734375,-0.02398681640625,-1.000137329101562,819907.6134840001,-0.000316916179144755,-0.002576075727120042,-0.002006958238780499,819907.6154550001,267.779052734375,-112.0664672851562,-153.2297515869141
2024-10-16 21:13:14.278 +0200,141,819907.6246760001,0.0027618408203125,-0.0228271484375,-1.000152587890625,819907.6234330001,0.001188036170788109,-0.002511893631890416,-0.001017061178572476,819907.625735,267.9226989746094,-111.9688720703125,-153.2143096923828
2024-10-16 21:13:14.288 +0200,142,819907.6346250001,0.0028228759765625,-0.0234375,-0.9991302490234375,819907.633382,-0.0002042644482571632,-0.00172492943238467,-0.001366734271869063,819907.636014,267.8129272460938,-112.1734313964844,-153.3469696044922
2024-10-16 21:13:14.298 +0200,143,819907.644574,0.000762939453125,-0.02374267578125,-0.997955322265625,819907.643331,0.002079129917547107,-0.001714543090201914,-0.001019191695377231,819907.6462920001,267.8380126953125,-112.0749664306641,-153.3795623779297
2024-10-16 21:13:14.311 +0200,144,819907.654523,0.00079345703125,-0.0233154296875,-0.9967803955078125,819907.6532800001,0.0003861583536490798,-0.003334543900564313,-0.00153584498912096,819907.6462920001,267.8380126953125,-112.0749664306641,-153.3795623779297
2024-10-16 21:13:14.320 +0200,145,819907.6644720001,0.001983642578125,-0.024383544921875,-0.998504638671875,819907.6632290001,0.0004008057294413447,-0.001366467913612723,-0.002008556155487895,819907.656573,267.9397277832031,-112.0633239746094,-153.2698364257812
2024-10-16 21:13:14.328 +0200,146,819907.6744210001,0.00115966796875,-0.02490234375,-0.9993133544921875,819907.673178,-0.00138031633105129,-0.001657551503740251,-0.0023917849175632,819907.6668520001,267.9268188476562,-112.0751495361328,-153.2063903808594
2024-10-16 21:13:14.338 +0200,147,819907.68437,-9.1552734375e-05,-0.0242767333984375,-0.9992218017578125,819907.683127,0.000833036785479635,-0.00347489258274436,0.0005816344055347145,819907.6771310001,267.5796508789062,-112.2857818603516,-153.3743743896484
2024-10-16 21:13:14.348 +0200,148,819907.694319,0.0007476806640625,-0.023956298828125,-0.9981231689453125,819907.6930760001,0.0036171053070575,-0.00281522748991847,-0.001494299620389938,819907.68741,267.8182983398438,-111.9134216308594,-153.1912536621094
2024-10-16 21:13:14.358 +0200,149,819907.7042680001,0.0021514892578125,-0.024078369140625,-0.999847412109375,819907.7030250001,0.0009680590592324734,-0.003144128015264869,-0.0007044061203487217,819907.6976890001,267.8318481445312,-112.0893402099609,-153.4903106689453
2024-10-16 21:13:14.377 +0200,150,819907.7142170001,0.0027923583984375,-0.02496337890625,-0.999114990234375,819907.712974,0.0003611246356740594,-0.0009832390351220965,-0.0007137271459214389,819907.7079670001,267.7725830078125,-112.0355377197266,-153.4435424804688
2024-10-16 21:13:14.378 +0200,151,819907.724166,0.0029296875,-0.0253753662109375,-0.9989013671875,819907.712974,0.0003611246356740594,-0.0009832390351220965,-0.0007137271459214389,819907.718246,267.8359069824219,-112.146484375,-153.3522491455078
2024-10-16 21:13:14.388 +0200,152,819907.734115,0.0035247802734375,-0.0233917236328125,-0.9993743896484375,819907.7328720001,0.001021322212181985,0.0004207794554531574,0.000367516215192154,819907.728524,267.7367553710938,-112.2190551757812,-153.1825714111328
2024-10-16 21:13:14.398 +0200,153,819907.7440640001,0.0032806396484375,-0.023681640625,-0.9981231689453125,819907.7428210001,-0.0001019990668282844,-0.001783252693712711,-0.001675660954788327,819907.7388040001,267.77392578125,-112.1669158935547,-153.17724609375
2024-10-16 21:13:14.408 +0200,154,819907.7540130001,0.003875732421875,-0.0248565673828125,-0.99822998046875,819907.75277,0.002172873122617602,-0.0004514057945925742,-0.001773665309883654,819907.749084,267.9020385742188,-112.1692504882812,-153.2967071533203
2024-10-16 21:13:14.418 +0200,155,819907.763962,0.002166748046875,-0.0239105224609375,-0.9989776611328125,819907.7627190001,0.00108257494866848,-0.0002585929469205439,-0.001823998987674713,819907.7593690001,267.5827026367188,-112.4050903320312,-153.5403747558594
2024-10-16 21:13:14.428 +0200,156,819907.7739100001,0.0013580322265625,-0.0227813720703125,-0.9996185302734375,819907.7726670001,0.002002430846914649,3.27568814100232e-05,-0.00102398544549942,819907.7696410001,267.7442626953125,-112.0852355957031,-153.1602020263672
2024-10-16 21:13:14.438 +0200,157,819907.7838590001,0.00286865234375,-0.0249176025390625,-0.9993896484375,819907.782616,0.0004404868523124605,-0.001155279227532446,0.0007033408619463444,819907.7799180001,267.7104187011719,-112.2083435058594,-153.2644500732422
2024-10-16 21:13:14.447 +0200,158,819907.793808,0.003326416015625,-0.0250244140625,-0.9986572265625,819907.792565,-0.001948102377355099,-0.002343848114833236,0.0005219795857556164,819907.790197,267.8404235839844,-112.1564331054688,-153.1996765136719
2024-10-16 21:13:14.457 +0200,159,819907.803757,0.0003662109375,-0.023529052734375,-0.9991607666015625,819907.8025140001,-0.0001467401743866503,-0.001035703346133232,-0.002536394633352757,819907.8004750001,267.7038269042969,-112.2470855712891,-153.1274261474609
2024-10-16 21:13:14.467 +0200,160,819907.8137060001,-0.0005645751953125,-0.0241241455078125,-0.998870849609375,819907.8124630001,0.001182709820568562,-0.002202966948971152,0.001476190169341862,819907.8107530001,267.8028869628906,-112.1498413085938,-153.2637786865234
2024-10-16 21:13:14.477 +0200,161,819907.8236550001,0.0005645751953125,-0.0252685546875,-1.000518798828125,819907.822412,0.0002641855680849403,-0.004382497631013393,0.0004878911131527275,819907.821031,267.7447509765625,-112.3128356933594,-153.6232299804688
2024-10-16 21:13:14.487 +0200,162,819907.833604,6.103515625e-05,-0.0246734619140625,-0.9993133544921875,819907.832361,-0.000392816262319684,-0.003687146585434675,0.0003723099071066827,819907.831309,267.8026123046875,-112.1559600830078,-153.2072143554688
2024-10-16 21:13:14.503 +0200,163,819907.843553,0.00030517578125,-0.0234222412109375,-0.99951171875,819907.8423100001,0.002818956039845943,-0.002923351945355535,-0.001556351315230131,819907.8415880001,267.8758239746094,-112.1693725585938,-153.3185577392578
2024-10-16 21:13:14.507 +0200,164,819907.8535020001,0.0037078857421875,-0.023651123046875,-0.9992218017578125,819907.8522590001,0.001229048823006451,-0.001956091728061438,-0.003734550671651959,819907.8518670001,267.8121337890625,-112.1689910888672,-153.1215972900391
2024-10-16 21:13:14.517 +0200,165,819907.8634510001,0.002471923828125,-0.0218963623046875,-0.9993133544921875,819907.862208,0.0007339671719819307,-0.001014930661767721,-0.001386974239721894,819907.862146,267.8856201171875,-112.1622009277344,-153.2158660888672
2024-10-16 21:13:14.527 +0200,166,819907.8734,0.00299072265625,-0.02392578125,-0.99908447265625,819907.872157,-0.001135039259679615,-0.001616805093362927,-0.0008008125587366521,819907.8724240001,267.8207397460938,-112.1388092041016,-153.1431579589844
2024-10-16 21:13:14.537 +0200,167,819907.883349,0.0029754638671875,-0.02410888671875,-0.9986419677734375,819907.8821060001,7.856325100874528e-05,-0.001794171635992825,-0.0009100021561607718,819907.8827020001,267.763916015625,-112.2392425537109,-153.30224609375
2024-10-16 21:13:14.547 +0200,168,819907.8932980001,0.0046844482421875,-0.024993896484375,-1.000518798828125,819907.8920550001,0.0008594020619057119,-0.003962250892072916,-0.002975816139951348,819907.89298,267.7610473632812,-112.1895599365234,-153.1891021728516
2024-10-16 21:13:14.558 +0200,169,819907.9032470001,0.0036773681640625,-0.025299072265625,-1.00048828125,819907.902004,0.000594950164668262,-0.002202167874202132,-0.001289236242882907,819907.903259,267.85888671875,-112.1754150390625,-153.3779602050781
2024-10-16 21:13:14.567 +0200,170,819907.913196,0.0020599365234375,-0.0247344970703125,-0.9994964599609375,819907.911953,0.001847168547101319,-0.003141997382044792,0.0003099919413216412,819907.9135380001,267.9744262695312,-112.0568237304688,-153.2452850341797
2024-10-16 21:13:14.577 +0200,171,819907.923145,0.002899169921875,-0.0262603759765625,-0.9987335205078125,819907.9219020001,0.003591539105400443,-0.002499376656487584,-0.00020985709852539,819907.923816,267.8021240234375,-112.1600799560547,-153.5416107177734
2024-10-16 21:13:14.587 +0200,172,819907.9330940001,0.0011444091796875,-0.024749755859375,-1.000823974609375,819907.9318510001,0.00349992630071938,-0.005686115007847548,-0.003370763035491109,819907.934096,267.853271484375,-112.1250305175781,-153.2931365966797
2024-10-16 21:13:14.597 +0200,173,819907.9430430001,-0.00128173828125,-0.0244903564453125,-0.9990234375,819907.9418,0.001550226006656885,-0.002543585142120719,-0.0008322378271259367,819907.9443740001,267.8904418945312,-112.2281036376953,-153.4759521484375
2024-10-16 21:13:14.606 +0200,174,819907.952992,0.00152587890625,-0.0247039794921875,-0.999176025390625,819907.951749,0.003494600066915154,-0.002711630659177899,-0.003050118451938033,819907.9546520001,268.0144348144531,-112.1020050048828,-153.5197601318359
2024-10-16 21:13:14.620 +0200,175,819907.962941,0.002349853515625,-0.0222930908203125,-0.9971771240234375,819907.9616980001,0.001606152392923832,-0.001709483098238707,-0.001700694672763348,819907.964931,267.8029174804688,-112.1876983642578,-153.5740814208984
2024-10-16 21:13:14.627 +0200,176,819907.9728890001,-0.0001678466796875,-0.024078369140625,-0.998443603515625,819907.971646,0.002223206916823983,-0.0008407599525526166,-0.001064199139364064,819907.964931,267.8029174804688,-112.1876983642578,-153.5740814208984
2024-10-16 21:13:14.637 +0200,177,819907.9828380001,0.000732421875,-0.0234527587890625,-0.99896240234375,819907.981595,0.00122079299762845,-0.002875681268051267,0.001552090281620622,819907.9752100001,267.705078125,-112.1066436767578,-153.2959747314453
2024-10-16 21:13:14.646 +0200,178,819907.992787,0.0030059814453125,-0.0231475830078125,-0.9984893798828125,819907.9915440001,0.001214135088957846,-0.004730839282274246,-0.002189384773373604,819907.9854890001,267.9403076171875,-112.0706634521484,-153.4663848876953
2024-10-16 21:13:14.656 +0200,179,819908.002736,0.0034027099609375,-0.0233917236328125,-0.9998931884765625,819908.0014930001,-0.0001533980830572546,-0.00299206143245101,-0.0006250438746064901,819907.995769,267.7738647460938,-112.1847534179688,-153.6202087402344
2024-10-16 21:13:14.666 +0200,180,819908.0126850001,0.0033111572265625,-0.02349853515625,-0.9999237060546875,819908.011442,0.004510063212364912,-0.001521463971585035,-0.002477538771927357,819908.0060490001,267.9368286132812,-112.0808868408203,-153.2627563476562
2024-10-16 21:13:14.676 +0200,181,819908.0226340001,0.0021209716796875,-0.0238037109375,-1.000411987304688,819908.021391,-0.0003978762542828918,-0.002004295121878386,0.0001555285998620093,819908.016329,267.6950073242188,-112.2781219482422,-153.3163909912109
2024-10-16 21:13:14.687 +0200,182,819908.032583,0.0042266845703125,-0.024261474609375,-0.998870849609375,819908.0313400001,0.001358744804747403,-0.001023452845402062,0.000434361572843045,819908.026608,267.6144409179688,-112.2627105712891,-153.5496978759766
2024-10-16 21:13:14.696 +0200,183,819908.042532,0.0036468505859375,-0.02520751953125,-0.999298095703125,819908.0412890001,0.002038383390754461,-0.002437591319903731,-0.0002447445003781468,819908.0368870001,267.8814697265625,-112.0982513427734,-153.2996215820312
2024-10-16 21:13:14.706 +0200,184,819908.0524810001,0.0014495849609375,-0.0259552001953125,-1.000518798828125,819908.051238,0.00142665533348918,-0.003168629016727209,-0.0004551342281047255,819908.047166,267.7504577636719,-112.1385192871094,-153.3816528320312
2024-10-16 21:13:14.716 +0200,185,819908.06243,0.0015106201171875,-0.02459716796875,-0.998870849609375,819908.061187,0.0003632551815826446,0.0003166498499922454,-0.001764876884408295,819908.057445,267.8800659179688,-111.9938507080078,-153.2814331054688
2024-10-16 21:13:14.726 +0200,186,819908.072379,0.00189208984375,-0.0244903564453125,-1.000534057617188,819908.0711360001,-0.001396561623550951,-0.001047154888510704,-0.0007880293414928019,819908.0677240001,267.8652648925781,-112.2108154296875,-153.3447570800781
2024-10-16 21:13:14.738 +0200,187,819908.0823280001,0.0020751953125,-0.025543212890625,-0.99969482421875,819908.0810850001,0.0002436792419757694,0.002209891099482775,-0.0009624664089642465,819908.078003,267.8712158203125,-112.1196594238281,-153.1412506103516
2024-10-16 21:13:14.746 +0200,188,819908.0922770001,0.000457763671875,-0.023193359375,-0.9998016357421875,819908.091034,0.0006095975404605269,-0.001750495750457048,-0.002435460686683655,819908.088281,267.98828125,-112.1386871337891,-153.3634033203125
2024-10-16 21:13:14.756 +0200,189,819908.102226,0.001068115234375,-0.023712158203125,-0.999359130859375,819908.100983,0.002922020386904478,-0.003196858568117023,-0.0005033374181948602,819908.0985610001,267.7471923828125,-112.0456390380859,-153.2395172119141
2024-10-16 21:13:14.766 +0200,190,819908.112175,0.0012969970703125,-0.023101806640625,-1.00128173828125,819908.1109320001,0.001401089015416801,-0.001191232004202902,-0.001268729916773736,819908.10884,267.7926025390625,-111.9721374511719,-153.1570739746094
2024-10-16 21:13:14.776 +0200,191,819908.1221240001,0.0010528564453125,-0.0242156982421875,-0.999359130859375,819908.1208810001,0.00367116741836071,-0.003447994589805603,-0.001177649828605354,819908.119119,267.96533203125,-112.0859222412109,-153.283203125
2024-10-16 21:13:14.786 +0200,192,819908.1320730001,0.0032958984375,-0.024444580078125,-0.9990386962890625,819908.13083,-0.0009246495319530368,-0.005340969655662775,-0.003095125779509544,819908.1293980001,268.0062866210938,-112.0230560302734,-153.4628295898438
2024-10-16 21:13:14.798 +0200,193,819908.142022,0.0041961669921875,-0.024658203125,-0.9990386962890625,819908.140779,-0.0002404834376648068,-0.003145459573715925,-0.0008660599705763161,819908.1396750001,268.013671875,-112.1309204101562,-153.3559112548828
2024-10-16 21:13:14.805 +0200,194,819908.151971,0.0060272216796875,-0.025726318359375,-0.9996490478515625,819908.1507280001,-0.0005313006113283336,-0.001404551090672612,0.001205346663482487,819908.149954,267.9362182617188,-112.2122802734375,-153.4666900634766
2024-10-16 21:13:14.815 +0200,195,819908.1619200001,0.004669189453125,-0.0243988037109375,-1.000320434570312,819908.1606770001,0.001184041379019618,-0.002822684356942773,0.0001046622273861431,819908.1602320001,267.7960510253906,-112.1447448730469,-153.4044494628906
2024-10-16 21:13:14.825 +0200,196,819908.1718680001,0.002960205078125,-0.0261993408203125,-1.000152587890625,819908.170625,0.0009494169498793781,-0.001716673607006669,-0.0006652576266787946,819908.1705110001,267.8291015625,-112.1598815917969,-153.4207000732422
2024-10-16 21:13:14.835 +0200,197,819908.181817,0.0020294189453125,-0.02520751953125,-0.9996490478515625,819908.180574,-0.0005227785441093147,-0.0009707222343422472,0.001402686932124197,819908.18079,267.8103942871094,-112.2366638183594,-153.3263549804688
2024-10-16 21:13:14.845 +0200,198,819908.191766,0.0010223388671875,-0.0243682861328125,-0.9984588623046875,819908.1905230001,-0.001167796086519957,-0.001929726568050683,0.0013339773286134,819908.1910690001,267.7568359375,-112.1837310791016,-153.2026214599609
2024-10-16 21:13:14.858 +0200,199,819908.2017150001,0.0028839111328125,-0.0243988037109375,-0.9986114501953125,819908.2004720001,-0.002353435382246971,-0.003935352899134159,-0.004403270315378904,819908.2013480001,267.7455749511719,-112.0647888183594,-153.3078002929688
2024-10-16 21:13:14.865 +0200,200,819908.2116640001,0.0030364990234375,-0.0222625732421875,-1.000030517578125,819908.210421,0.0004876247840002179,-0.001095890766009688,-0.001030376995913684,819908.211627,267.8333740234375,-112.1591644287109,-153.2259216308594
2024-10-16 21:13:14.875 +0200,201,819908.221613,0.0017852783203125,-0.02423095703125,-0.9982757568359375,819908.22037,0.003070092061534524,-0.004808870144188404,-7.137271313695237e-05,819908.221905,267.8391723632812,-112.1781311035156,-153.4769134521484
2024-10-16 21:13:14.885 +0200,202,819908.231562,0.0007476806640625,-0.0227203369140625,-1.000228881835938,819908.2303190001,0.002199504757300019,-0.002653573639690876,-0.002621615771204233,819908.2321840001,267.8829956054688,-111.9873199462891,-153.0420532226562
2024-10-16 21:13:14.895 +0200,203,819908.2415110001,0.000885009765625,-0.0233306884765625,-1,819908.2402680001,0.003764910856261849,-0.001197357196360826,-0.003838414093479514,819908.242463,267.9276733398438,-112.0219421386719,-153.3386993408203
2024-10-16 21:13:14.905 +0200,204,819908.2514600001,0.0013580322265625,-0.024383544921875,-0.9997406005859375,819908.250217,-9.906959166983142e-05,-0.00327329128049314,0.0002378202771069482,819908.252742,267.8680419921875,-112.0339660644531,-153.3706970214844
2024-10-16 21:13:14.920 +0200,205,819908.261409,0.001739501953125,-0.0238800048828125,-0.9995574951171875,819908.260166,0.001101749716326594,-0.003155046841129661,-0.001103081274777651,819908.252742,267.8680419921875,-112.0339660644531,-153.3706970214844
2024-10-16 21:13:14.925 +0200,206,819908.271358,0.003326416015625,-0.024932861328125,-0.998199462890625,819908.2701150001,0.00143917219247669,-0.001827727421186864,0.0009701895760372281,819908.2733,267.5521850585938,-112.4052429199219,-153.2036285400391
2024-10-16 21:13:14.935 +0200,207,819908.2813070001,0.002777099609375,-0.026336669921875,-1.00030517578125,819908.280064,-0.0006434197421185672,-0.003321494441479445,-0.0006511429091915488,819908.2733,267.5521850585938,-112.4052429199219,-153.2036285400391
2024-10-16 21:13:14.945 +0200,208,819908.2912560001,0.0047149658203125,-0.0252685546875,-0.9990997314453125,819908.290013,0.0006809702608734369,-0.0002210423699580133,-0.001283377292566001,819908.283579,267.6248168945312,-112.1871948242188,-153.1926422119141
2024-10-16 21:13:14.955 +0200,209,819908.301205,0.0041656494140625,-0.0248565673828125,-0.9992828369140625,819908.2999620001,0.001534779672510922,0.0003371562052052468,0.000990429543890059,819908.2938570001,267.7112731933594,-112.25439453125,-153.4473266601562
2024-10-16 21:13:14.965 +0200,210,819908.311154,0.004302978515625,-0.02581787109375,-0.99920654296875,819908.3099110001,0.001635447260923684,-0.002979544689878821,-0.0009419600828550756,819908.3041350001,267.7930297851562,-112.1368103027344,-153.4632720947266
2024-10-16 21:13:14.975 +0200,211,819908.3211030001,0.000946044921875,-0.0252532958984375,-0.9998626708984375,819908.31986,-0.0007217166712507606,-0.002627474721521139,-0.002026931848376989,819908.314414,267.7568969726562,-112.1158447265625,-153.1424255371094
2024-10-16 21:13:14.986 +0200,212,819908.3310520001,0.0024261474609375,-0.024078369140625,-0.9987945556640625,819908.329809,-0.003609115956351161,-0.001538241864182055,-0.003392068203538656,819908.3246930001,267.9306030273438,-112.019287109375,-153.4599151611328
2024-10-16 21:13:14.995 +0200,213,819908.341001,0.0001220703125,-0.0228424072265625,-1.000518798828125,819908.3397580001,0.002490588231012225,-0.002721217926591635,0.000217846580198966,819908.3349710001,267.8642578125,-112.0785064697266,-153.3852081298828
2024-10-16 21:13:15.005 +0200,214,819908.35095,-0.0001373291015625,-0.022918701171875,-0.9979400634765625,819908.3497070001,0.0006253102328628302,-0.001316933194175363,-0.001221591955982149,819908.345251,267.8967895507812,-111.9790649414062,-153.4451599121094
2024-10-16 21:13:15.015 +0200,215,819908.3608990001,0.0010528564453125,-0.0234375,-0.9987030029296875,819908.359656,0.002674079965800047,-0.002120675053447485,0.0001653822982916608,819908.3555310001,267.9912109375,-112.0693511962891,-153.1821594238281
2024-10-16 21:13:15.025 +0200,216,819908.370847,0.000823974609375,-0.02459716796875,-0.999969482421875,819908.369604,0.001947836019098759,-0.002243979601189494,-0.0004282362933736295,819908.3658100001,267.7581176757812,-112.0189056396484,-153.3709259033203
2024-10-16 21:13:15.034 +0200,217,819908.380796,0.00103759765625,-0.0244293212890625,-0.9993743896484375,819908.3795530001,0.00139736058190465,-0.003451989265158772,-0.0006857639527879655,819908.376088,267.8655090332031,-112.0965118408203,-153.3631896972656
2024-10-16 21:13:15.045 +0200,218,819908.3907450001,0.0011138916015625,-0.0253143310546875,-0.999237060546875,819908.3895020001,0.004585164599120617,-0.001612810301594436,-0.001093760249204934,819908.386366,267.749267578125,-112.1231079101562,-153.3904876708984
2024-10-16 21:13:15.054 +0200,219,819908.4006940001,0.0032958984375,-0.0245361328125,-1.000228881835938,819908.399451,0.002563292626291513,0.0001880191703094169,0.002483930438756943,819908.3966450001,267.8944702148438,-112.2140808105469,-153.3879852294922
2024-10-16 21:13:15.064 +0200,220,819908.410643,0.003448486328125,-0.023712158203125,-0.9987335205078125,819908.4094,-0.002418949268758297,-0.001976065570488572,-0.0003685815026983619,819908.406924,267.7499389648438,-112.1934051513672,-153.4586486816406
2024-10-16 21:13:15.074 +0200,221,819908.420592,0.003662109375,-0.0248870849609375,-0.9987335205078125,819908.4193490001,0.0001922802330227569,-0.002318015322089195,-0.003070891136303544,819908.417202,267.7738647460938,-112.1408386230469,-153.4978332519531
2024-10-16 21:13:15.084 +0200,222,819908.4305410001,0.0036773681640625,-0.0245361328125,-1.0003662109375,819908.4292980001,-0.000969923275988549,0.0003595267480704933,-0.00193478656001389,819908.4274800001,267.8587036132812,-112.1809692382812,-153.4879150390625
2024-10-16 21:13:15.094 +0200,223,819908.4404900001,0.001495361328125,-0.0255889892578125,-0.997802734375,819908.439247,0.0004956142511218786,-0.002961967838928103,-0.003702060086652637,819908.43776,267.8803405761719,-112.0531921386719,-153.3417053222656
2024-10-16 21:13:15.104 +0200,224,819908.450439,0.001251220703125,-0.025543212890625,-0.998931884765625,819908.449196,0.0009574064170010388,-0.0009041432058438659,-0.001974734012037516,819908.44804,267.837646484375,-112.0579986572266,-153.2387390136719
2024-10-16 21:13:15.114 +0200,225,819908.460388,0.001495361328125,-0.02447509765625,-0.999725341796875,819908.4591450001,0.001870071748271585,-0.005823534447699785,-0.0006910903030075133,819908.4583190001,267.79296875,-112.0316619873047,-153.4009094238281
2024-10-16 21:13:15.124 +0200,226,819908.4703370001,0.001129150390625,-0.0247955322265625,-0.99884033203125,819908.4690940001,0.001242897240445018,-0.002490321872755885,0.0008362325606867671,819908.468598,267.8577880859375,-112.1152954101562,-153.2325439453125
2024-10-16 21:13:15.134 +0200,227,819908.4802860001,0.0012969970703125,-0.022857666015625,-0.999267578125,819908.479043,0.00256009679287672,-0.001060470705851912,-0.0006111954571679235,819908.478876,267.8543701171875,-112.0143280029297,-153.2633819580078
2024-10-16 21:13:15.144 +0200,228,819908.490235,0.00177001953125,-0.0222930908203125,-0.9992523193359375,819908.488992,0.0008226504432968795,-0.004264520015567541,-0.001012001186609268,819908.4891540001,267.9056396484375,-112.0820770263672,-153.209716796875
2024-10-16 21:13:15.159 +0200,229,819908.500184,-0.0001373291015625,-0.0223541259765625,-0.9986572265625,819908.4989410001,0.002357696415856481,-0.002885002410039306,-0.001910818042233586,819908.4994330001,267.8625183105469,-111.9670715332031,-153.4514312744141
2024-10-16 21:13:15.164 +0200,230,819908.5101330001,0.001434326171875,-0.0245819091796875,-0.9989013671875,819908.5088900001,0.002037318190559745,-0.0006801713607273996,-0.0009414274245500565,819908.509712,267.9163818359375,-112.0196990966797,-153.2744445800781
2024-10-16 21:13:15.174 +0200,231,819908.5200820001,0.000762939453125,-0.024749755859375,-0.999847412109375,819908.518839,-0.000291616132017225,-0.001614940818399191,-0.002567020943388343,819908.5199900001,267.9111938476562,-112.0483093261719,-153.3649444580078
2024-10-16 21:13:15.184 +0200,232,819908.530031,0.00115966796875,-0.0253753662109375,-0.9982147216796875,819908.528788,0.001673796679824591,-0.002990729873999953,-0.001030110754072666,819908.5302700001,267.9028015136719,-112.1028747558594,-153.3087463378906
2024-10-16 21:13:15.194 +0200,233,819908.53998,0.0028076171875,-0.0247802734375,-0.9981842041015625,819908.5387370001,0.002104429760947824,-0.004286624025553465,-0.00125062046572566,819908.54055,267.7640991210938,-112.0206146240234,-153.4273834228516
2024-10-16 21:13:15.204 +0200,234,819908.5499290001,0.002655029296875,-0.024749755859375,-0.9994964599609375,819908.5486860001,0.0001888181141112,-0.000931307440623641,-0.0003430151555221528,819908.5508290001,268.0702514648438,-112.0864562988281,-153.4179229736328
2024-10-16 21:13:15.218 +0200,235,819908.5598780001,0.003173828125,-0.0258026123046875,-1.000167846679688,819908.558635,-0.0003893541579600424,-0.004514856729656458,-0.002023736014962196,819908.561108,267.9092102050781,-112.0946502685547,-153.3968505859375
2024-10-16 21:13:15.223 +0200,236,819908.569826,0.0049285888671875,-0.0247039794921875,-0.998779296875,819908.5685830001,0.002183792181313038,-0.003263171296566725,-0.001268996275030077,819908.571388,267.7915344238281,-112.126708984375,-153.3502044677734
2024-10-16 21:13:15.234 +0200,237,819908.5797750001,0.0042572021484375,-0.024322509765625,-1.000076293945312,819908.5785320001,-0.0008607336785644293,-0.001253017340786755,1.731054726406001e-05,819908.5816670001,267.9254150390625,-112.0600280761719,-153.2703399658203
2024-10-16 21:13:15.243 +0200,238,819908.5897240001,0.0028228759765625,-0.022369384765625,-0.99981689453125,819908.588481,-0.003426156705245376,-0.003407781012356281,-0.0001640507252886891,819908.5816670001,267.9254150390625,-112.0600280761719,-153.2703399658203
2024-10-16 21:13:15.253 +0200,239,819908.599673,0.00177001953125,-0.022979736328125,-0.9987945556640625,819908.59843,0.001267930958420038,-0.002442651428282261,0.0008575378451496363,819908.591947,267.9376220703125,-112.0651550292969,-153.4313507080078
2024-10-16 21:13:15.263 +0200,240,819908.609622,0.001312255859375,-0.0222015380859375,-0.9980926513671875,819908.6083790001,0.001112668658606708,-0.001735315774567425,0.0004572647449094802,819908.6022270001,267.7703552246094,-112.2730865478516,-153.4697418212891
2024-10-16 21:13:15.273 +0200,241,819908.6195710001,0.00048828125,-0.02362060546875,-1.000534057617188,819908.6183280001,0.0001683117734501138,-0.001842907513491809,-0.002963831881061196,819908.6125050001,267.7291259765625,-112.2959289550781,-153.3368530273438
2024-10-16 21:13:15.287 +0200,242,819908.6295200001,0.0006256103515625,-0.024322509765625,-0.9991455078125,819908.628277,0.002327602822333574,-0.00136380479671061,-0.0005241101025603712,819908.622783,267.9071655273438,-112.1159515380859,-153.2768096923828
2024-10-16 21:13:15.293 +0200,243,819908.639469,0.0003204345703125,-0.0234832763671875,-0.99774169921875,819908.638226,0.0005286374944262207,0.0009443568997085094,0.001588309300132096,819908.633062,267.944580078125,-112.0436248779297,-153.3937683105469
2024-10-16 21:13:15.303 +0200,244,819908.649418,0.0016326904296875,-0.0248260498046875,-1.000152587890625,819908.6481750001,-0.0002167813072446734,-0.000928111607208848,-0.0006689860601909459,819908.6433410001,267.7211303710938,-112.3025665283203,-153.0963745117188
2024-10-16 21:13:15.313 +0200,245,819908.6593670001,0.002716064453125,-0.0265045166015625,-0.9995269775390625,819908.6581240001,0.0004277036641724408,-0.0006588660762645304,-0.002713761059567332,819908.65362,267.7886962890625,-112.1319427490234,-153.0242767333984
2024-10-16 21:13:15.323 +0200,246,819908.6693160001,0.0018463134765625,-0.0254364013671875,-0.998077392578125,819908.668073,0.0009917612187564373,-0.001006408594548702,-0.001102815032936633,819908.663899,267.81787109375,-112.0984802246094,-153.3087310791016
2024-10-16 21:13:15.338 +0200,247,819908.679265,0.0023345947265625,-0.0244140625,-0.9986724853515625,819908.678022,-0.0004428836982697248,-0.0005930859479121864,-0.00174969679210335,819908.6741780001,267.8980712890625,-112.2209167480469,-153.3333282470703
2024-10-16 21:13:15.343 +0200,248,819908.689214,0.0037078857421875,-0.025146484375,-0.99908447265625,819908.6879710001,0.004037085920572281,-0.002872751792892814,-0.0005486111622303724,819908.684457,267.9303588867188,-112.2226409912109,-153.2575531005859
2024-10-16 21:13:15.353 +0200,249,819908.6991630001,0.0041656494140625,-0.024200439453125,-0.9985504150390625,819908.6979200001,0.001347026904113591,-0.003036536276340485,-0.002356098499149084,819908.694735,267.7920532226562,-112.1155548095703,-153.2314605712891
2024-10-16 21:13:15.363 +0200,250,819908.7091120001,0.0037078857421875,-0.0220184326171875,-0.99786376953125,819908.707869,0.002507898723706603,-0.002598978811874986,-0.001763545209541917,819908.7050130001,267.7441101074219,-112.1239471435547,-153.3911743164062
2024-10-16 21:13:15.373 +0200,251,819908.719061,0.0017547607421875,-0.02239990234375,-0.9997406005859375,819908.717818,-0.001394164864905179,-0.0006956176948733628,-0.0002817624481394887,819908.7152920001,267.6342163085938,-112.1976318359375,-153.2262725830078
2024-10-16 21:13:15.383 +0200,252,819908.72901,0.0030364990234375,-0.0217742919921875,-0.99884033203125,819908.7277670001,-0.001452754368074238,-0.002170210005715489,-0.001669802004471421,819908.725571,267.7890319824219,-112.1944427490234,-153.310791015625
2024-10-16 21:13:15.393 +0200,253,819908.7389590001,0.001983642578125,-0.0238189697265625,-0.9996337890625,819908.7377160001,0.0008205199264921248,-0.0001371527905575931,0.002019474981352687,819908.7358510001,267.9102783203125,-112.0944366455078,-153.2564392089844
2024-10-16 21:13:15.403 +0200,254,819908.7489080001,0.00030517578125,-0.024078369140625,-0.99920654296875,819908.747665,0.0006538060260936618,-0.003142530098557472,0.0003430151555221528,819908.746131,267.830810546875,-112.2077484130859,-153.3662872314453
2024-10-16 21:13:15.413 +0200,255,819908.758857,0.000762939453125,-0.0261688232421875,-0.999267578125,819908.757614,0.001218396238982677,-0.001593369292095304,0.001639708294533193,819908.756409,267.76123046875,-112.2312927246094,-153.2460479736328
2024-10-16 21:13:15.423 +0200,256,819908.7688052501,0.0017852783203125,-0.0261383056640625,-0.999114990234375,819908.76756225,0.0001510012370999902,-0.003458114573732018,-0.002114549977704883,819908.76668825,267.9615478515625,-112.0877380371094,-153.4594116210938
2024-10-16 21:13:15.433 +0200,257,819908.77875425,0.00140380859375,-0.0250244140625,-0.9990997314453125,819908.77751125,0.0007352987886406481,-0.001075650798156857,-0.0002828277065418661,819908.7769682501,267.7208862304688,-112.1739654541016,-153.2567443847656
2024-10-16 21:13:15.442 +0200,258,819908.78870325,0.0019378662109375,-0.0249176025390625,-0.999725341796875,819908.7874602501,0.0009060074225999415,-0.004597947467118502,-0.001769670518115163,819908.7872472501,267.877685546875,-112.2448272705078,-153.2917327880859
2024-10-16 21:13:15.458 +0200,259,819908.7986522501,0.00323486328125,-0.024383544921875,-0.9993438720703125,819908.7974092501,0.002585662994533777,-0.001746501075103879,0.0004814995336346328,819908.79752725,267.8279724121094,-112.2730407714844,-153.0556335449219
2024-10-16 21:13:15.462 +0200,260,819908.8086012501,0.002227783203125,-0.023651123046875,-0.99871826171875,819908.80735825,0.001907622325234115,-0.00367143377661705,0.0002460760879330337,819908.8078062501,267.912841796875,-112.2617492675781,-153.3244781494141
2024-10-16 21:13:15.472 +0200,261,819908.81855025,0.0015869140625,-0.0248870849609375,-1.000106811523438,819908.81730725,0.0002849582233466208,-0.001122788758948445,-0.001179513987153769,819908.8180852501,268.0115661621094,-112.1934814453125,-153.3220825195312
2024-10-16 21:13:15.482 +0200,262,819908.82849925,0.0020751953125,-0.02423095703125,-0.99798583984375,819908.8272562501,-0.001276719383895397,-0.002581401960924268,-0.0002442118711769581,819908.82836425,267.9898376464844,-112.0539245605469,-153.4122619628906
2024-10-16 21:13:15.492 +0200,263,819908.8384482501,0.0036773681640625,-0.0222015380859375,-0.9995574951171875,819908.83720525,8.388957212446257e-05,-0.001635713502764702,-0.003598729614168406,819908.83864225,267.8955688476562,-112.0390625,-153.2340393066406
2024-10-16 21:13:15.502 +0200,264,819908.8483972501,0.0025177001953125,-0.0238494873046875,-0.9992218017578125,819908.84715425,0.0006913566030561924,-0.0007816377910785377,-0.0003656520275399089,819908.8489222501,267.970703125,-112.0531768798828,-153.6373901367188
2024-10-16 21:13:15.519 +0200,265,819908.85834625,0.0031585693359375,-0.0243072509765625,-0.9987640380859375,819908.8571032501,-0.001533714472316206,-0.001014131703414023,-0.004426440224051476,819908.85920125,268.0795593261719,-112.2307586669922,-153.3993835449219
2024-10-16 21:13:15.522 +0200,266,819908.86829525,0.0029449462890625,-0.0252685546875,-1.000259399414062,819908.8670522501,0.0005731122801080346,-0.00281629292294383,-0.001446096459403634,819908.8694802501,267.99560546875,-112.1683349609375,-153.1607513427734
2024-10-16 21:13:15.532 +0200,267,819908.8782442501,0.001617431640625,-0.0254364013671875,-0.998504638671875,819908.87700125,-0.0002705771767068654,-0.002643986372277141,-0.002333994256332517,819908.8797602501,267.8465576171875,-112.0285491943359,-153.398681640625
2024-10-16 21:13:15.542 +0200,268,819908.8881932501,0.0025177001953125,-0.0266571044921875,-0.998260498046875,819908.88695025,0.0005105279851704836,-0.0020823257509619,-0.0003701793903019279,819908.89003825,267.9435424804688,-112.2685852050781,-153.3045043945312
2024-10-16 21:13:15.552 +0200,269,819908.89814225,0.001800537109375,-0.0259552001953125,-0.9996795654296875,819908.8968992501,0.0003403519804123789,-0.001125451875850558,-0.0006130596739239991,819908.89003825,267.9435424804688,-112.2685852050781,-153.3045043945312
2024-10-16 21:13:15.562 +0200,270,819908.90809125,0.0016326904296875,-0.0262603759765625,-0.998046875,819908.9068482501,0.0008612662786617875,-0.00273613166064024,-0.0005957491230219603,819908.9003172501,267.790771484375,-112.2079620361328,-153.3385009765625
2024-10-16 21:13:15.572 +0200,271,819908.9180402501,0.0018310546875,-0.0238189697265625,-0.9991912841796875,819908.91679725,-0.0006993460701778531,-0.0008476841612718999,0.0007065366371534765,819908.9105962501,267.7511596679688,-112.1569061279297,-153.0984344482422
2024-10-16 21:13:15.585 +0200,272,819908.92798925,0.0006866455078125,-0.023406982421875,-0.9968719482421875,819908.92674625,0.002079662401229143,-0.002579537918791175,-0.0009709885343909264,819908.92087525,267.9146423339844,-112.1859893798828,-153.3634643554688
2024-10-16 21:13:15.592 +0200,273,819908.93793825,0.0015716552734375,-0.0248260498046875,-0.998443603515625,819908.9366952501,0.001668204087764025,-0.002841592766344547,-0.001812014845199883,819908.93115325,267.8012390136719,-112.1161193847656,-153.0880737304688
2024-10-16 21:13:15.602 +0200,274,819908.9478872501,0.0022735595703125,-0.02325439453125,-1.001144409179688,819908.9466442501,0.0006564692012034357,-0.003224289044737816,0.0006508765509352088,819908.9414312501,267.9647216796875,-112.1870269775391,-153.3044128417969
2024-10-16 21:13:15.611 +0200,275,819908.9578362501,0.00274658203125,-0.0224151611328125,-0.9982147216796875,819908.95659325,-0.001367000630125403,-0.003292466048151255,0.000458330032415688,819908.9517092501,267.9736938476562,-112.1760559082031,-153.4651794433594
2024-10-16 21:13:15.621 +0200,276,819908.96778425,0.003509521484375,-0.0224456787109375,-0.9987335205078125,819908.96654125,0.000720118754543364,-0.004699414130300283,0.0003275688213761896,819908.96198825,267.96240234375,-112.1946411132812,-153.2984008789062
2024-10-16 21:13:15.637 +0200,277,819908.97773325,0.0029449462890625,-0.02410888671875,-0.999481201171875,819908.9764902501,-0.002686064224690199,-0.002414688235148787,-0.0002511360798962414,819908.9722662501,267.84814453125,-112.1700439453125,-152.9410858154297
2024-10-16 21:13:15.641 +0200,278,819908.9876822501,0.0030975341796875,-0.0245819091796875,-0.9992523193359375,819908.9864392501,0.001810949528589845,-0.003156911116093397,-0.003097256412729621,819908.9825452501,267.8499145507812,-112.2298278808594,-153.2635345458984
2024-10-16 21:13:15.651 +0200,279,819908.9976312501,0.003448486328125,-0.0245361328125,-0.9985809326171875,819908.99638825,0.001792307361029088,-0.004552407655864954,-0.001520665013231337,819908.99282325,267.8507080078125,-112.0716247558594,-153.2500152587891
2024-10-16 21:13:15.661 +0200,280,819909.00758025,0.0015411376953125,-0.0251617431640625,-0.9981231689453125,819909.00633725,0.0007251787465065718,-0.004424575716257095,0.0004482100193854421,819909.00310225,268.055419921875,-112.0732727050781,-153.3511810302734
2024-10-16 21:13:15.671 +0200,281,819909.01752925,0.0019073486328125,-0.026214599609375,-0.9989166259765625,819909.0162862501,0.001817074837163091,-0.0008772452711127698,-0.002315085846930742,819909.0133812501,267.9641418457031,-112.2148284912109,-153.4365997314453
2024-10-16 21:13:15.681 +0200,282,819909.0274782501,6.103515625e-05,-0.0261688232421875,-0.9992523193359375,819909.0262352501,0.003220827085897326,-0.003033340442925692,0.0003834952076431364,819909.02366025,267.9812622070312,-112.0405120849609,-153.2851257324219
2024-10-16 21:13:15.691 +0200,283,819909.0374272501,0.0012359619140625,-0.0251007080078125,-0.998809814453125,819909.03618425,0.003155313199386001,-0.004327103961259127,-0.001249555149115622,819909.03393825,267.9595947265625,-112.1426239013672,-153.2379150390625
2024-10-16 21:13:15.701 +0200,284,819909.04737625,0.0015106201171875,-0.02435302734375,-1.000015258789062,819909.04613325,0.000443149998318404,-0.002687129424884915,-0.003215766977518797,819909.0442172501,267.7974548339844,-111.9839324951172,-153.2807464599609
2024-10-16 21:13:15.711 +0200,285,819909.05732525,0.001312255859375,-0.0229949951171875,-0.997894287109375,819909.0560822501,0.0007933556917123497,-0.001868207473307848,-0.002078064484521747,819909.05449625,267.8327026367188,-112.0691680908203,-153.5102844238281
2024-10-16 21:13:15.721 +0200,286,819909.0672742501,0.0001678466796875,-0.02252197265625,-0.99884033203125,819909.0660312501,0.002657035831362009,-0.003262638580054045,-0.001426122733391821,819909.06477525,267.8410339355469,-112.0303802490234,-153.3929443359375
2024-10-16 21:13:15.731 +0200,287,819909.0772232501,0.0031280517578125,-0.022979736328125,-0.9988250732421875,819909.07598025,0.001019458053633571,-0.001931857084855437,0.0001448759576305747,819909.0750542501,267.8692932128906,-112.0845336914062,-153.1880645751953
2024-10-16 21:13:15.741 +0200,288,819909.08717225,0.00311279296875,-0.023406982421875,-0.99981689453125,819909.08592925,0.002415220718830824,-0.005536711774766445,0.0003406183095648885,819909.08533325,267.8518981933594,-112.0782775878906,-153.0525817871094
2024-10-16 21:13:15.757 +0200,289,819909.09712125,0.001708984375,-0.0240631103515625,-1.000289916992188,819909.0958782501,0.001637045061215758,-0.005091431550681591,-0.001384044764563441,819909.09561225,268.01904296875,-111.8256072998047,-153.2801513671875
2024-10-16 21:13:15.761 +0200,290,819909.1070702501,0.0037384033203125,-0.02520751953125,-0.9996337890625,819909.1058272501,1.464738579670666e-05,-0.004381965380162001,-0.001514273346401751,819909.1058912501,267.8634338378906,-112.1203918457031,-153.25439453125
2024-10-16 21:13:15.771 +0200,291,819909.1170192501,0.0040740966796875,-0.02679443359375,-0.998870849609375,819909.11577625,0.0001113201360567473,0.0003001382574439049,-0.002072738250717521,819909.11617025,267.7695922851562,-112.21875,-153.2786560058594
2024-10-16 21:13:15.781 +0200,292,819909.12696825,0.003814697265625,-0.0262298583984375,-1.000244140625,819909.12572525,0.001293763634748757,-0.004414988216012716,0.0004777711001224816,819909.12644725,267.8087158203125,-112.14208984375,-153.1048736572266
2024-10-16 21:13:15.791 +0200,293,819909.13691725,0.0027923583984375,-0.026641845703125,-0.9996185302734375,819909.1356742501,-0.001443166984245181,-0.004237888380885124,-0.000517718493938446,819909.1367262501,267.7855834960938,-112.1764373779297,-153.2084503173828
2024-10-16 21:13:15.801 +0200,294,819909.1468662501,0.00103759765625,-0.0253448486328125,-0.998931884765625,819909.14562325,0.0003057308786083013,-0.002912166528403759,-0.002148638246580958,819909.1470042501,267.8038024902344,-112.134765625,-153.3157043457031
2024-10-16 21:13:15.818 +0200,295,819909.15681425,0.00201416015625,-0.0240325927734375,-0.9983062744140625,819909.15557125,0.001427454291842878,-0.001199221471324563,-0.001960619119927287,819909.15728325,267.6726379394531,-112.11962890625,-153.4604949951172
2024-10-16 21:13:15.820 +0200,296,819909.16676325,0.00152587890625,-0.02203369140625,-1.000152587890625,819909.1655202501,0.00177952426020056,-0.005336708389222622,-0.001755289500579238,819909.16756225,267.7592163085938,-112.1919250488281,-153.4430999755859
2024-10-16 21:13:15.830 +0200,297,819909.1767122501,0.001861572265625,-0.0218353271484375,-0.9980621337890625,819909.1754692501,0.002822417998686433,-0.002326271263882518,-0.002789661288261414,819909.1778412501,267.6997985839844,-112.2243041992188,-153.1776275634766
2024-10-16 21:13:15.840 +0200,298,819909.1866612501,0.003387451171875,-0.0220794677734375,-0.99945068359375,819909.18541825,-0.0002026665606535971,-0.003341734409332275,-0.00196807598695159,819909.18811925,267.7108154296875,-112.2536468505859,-153.2983093261719
2024-10-16 21:13:15.850 +0200,299,819909.19661025,0.002685546875,-0.02197265625,-1.000885009765625,819909.19536725,0.0008641957538202405,-0.002247707918286324,-0.002635464305058122,819909.19839825,267.6416931152344,-112.2965850830078,-153.3440551757812
2024-10-16 21:13:15.861 +0200,300,819909.20655925,0.00140380859375,-0.022186279296875,-0.997894287109375,819909.2053162501,0.002575543010607362,-0.003339337650686502,-0.002327869180589914,819909.19839825,267.6416931152344,-112.2965850830078,-153.3440551757812
2024-10-16 21:13:15.871 +0200,301,819909.2165082501,0.0027313232421875,-0.022857666015625,-0.9978179931640625,819909.2152652501,0.001148887677118182,-0.002817624481394887,0.0006649913266301155,819909.2086772501,267.5885925292969,-112.3430786132812,-153.4947814941406
2024-10-16 21:13:15.884 +0200,302,819909.2264572501,0.00396728515625,-0.0251007080078125,-0.9994659423828125,819909.22521425,0.0006064017652533948,-0.0008556736283935606,-0.003095392137765884,819909.21895625,267.6380615234375,-112.2753753662109,-153.3521728515625
2024-10-16 21:13:15.890 +0200,303,819909.23640625,0.00445556640625,-0.0264739990234375,-1.00018310546875,819909.23516325,0.002255697501823306,-0.001870870706625283,-0.0009859022684395313,819909.22923525,267.7658386230469,-112.2982025146484,-153.5028533935547
2024-10-16 21:13:15.900 +0200,304,819909.24635525,0.002044677734375,-0.0272064208984375,-0.9969940185546875,819909.2451122501,0.001827194821089506,-0.002929477253928781,0.0005363606614992023,819909.2395142501,267.6846618652344,-112.2856750488281,-153.4493255615234
2024-10-16 21:13:15.910 +0200,305,819909.2563042501,0.0023651123046875,-0.025177001953125,-0.9980621337890625,819909.2550612501,0.0008700547041371465,-0.001286306767724454,-0.002796052722260356,819909.2497922501,267.6549682617188,-112.2661590576172,-153.3853759765625
2024-10-16 21:13:15.920 +0200,306,819909.2662532501,0.0040740966796875,-0.0250701904296875,-0.9990997314453125,819909.26501025,0.003314570290967822,-0.001771002076566219,-0.0001392833219142631,819909.26006925,267.6874389648438,-112.2463684082031,-153.4913940429688
2024-10-16 21:13:15.937 +0200,307,819909.27620225,0.00372314453125,-0.0246124267578125,-0.998382568359375,819909.27495925,5.246427463134751e-05,-0.001022387528792024,-0.0006511429091915488,819909.27034725,267.7670288085938,-112.2421569824219,-153.37353515625
2024-10-16 21:13:15.940 +0200,308,819909.28615125,0.001220703125,-0.024261474609375,-0.99884033203125,819909.2849082501,0.001342499512247741,0.0002660497848410159,-0.001634648302569985,819909.2806252501,267.7728271484375,-112.2915496826172,-153.4948120117188
2024-10-16 21:13:15.950 +0200,309,819909.2961002501,0.002838134765625,-0.02325439453125,-1.000152587890625,819909.2948572501,-0.0001448759576305747,-0.002201102674007416,-0.001560079748742282,819909.29090425,267.749755859375,-112.1715393066406,-153.0610656738281
2024-10-16 21:13:15.960 +0200,310,819909.3060492501,0.001220703125,-0.0224456787109375,-0.997955322265625,819909.30480625,0.0005648564547300339,-0.003028014209121466,0.000251402409048751,819909.30118225,267.73779296875,-112.2469024658203,-153.3999633789062
2024-10-16 21:13:15.970 +0200,311,819909.31599825,0.0011444091796875,-0.022216796875,-0.9978179931640625,819909.31475525,0.001156877144239843,-0.0008127967594191432,0.00014061490946915,819909.3114602501,267.76806640625,-112.2629547119141,-153.3170623779297
2024-10-16 21:13:15.980 +0200,312,819909.32594725,0.0032958984375,-0.0220794677734375,-1.000198364257812,819909.3247042501,0.002895655110478401,-0.0009470200748182833,0.0001755023113219067,819909.3217382501,267.838623046875,-112.2133636474609,-153.4126129150391
2024-10-16 21:13:15.991 +0200,313,819909.3358962501,0.001556396484375,-0.023193359375,-0.9996185302734375,819909.3346532501,0.002499110298231244,-0.003469299990683794,-0.001294029993005097,819909.33201725,267.863525390625,-112.1935729980469,-153.4483337402344
2024-10-16 21:13:16.001 +0200,314,819909.3458452501,0.0014190673828125,-0.023895263671875,-0.999969482421875,819909.34460225,-0.0003179814375471324,-0.000964064325671643,-0.002024535089731216,819909.34229525,267.6800231933594,-112.2192993164062,-153.3115081787109
2024-10-16 21:13:16.010 +0200,315,819909.35579325,0.0021209716796875,-0.0246124267578125,-0.9999847412109375,819909.3545502501,-0.0007747135823592544,-0.002177134156227112,-0.000559530162718147,819909.3525742501,267.742431640625,-112.2775115966797,-153.2010192871094
2024-10-16 21:13:16.019 +0200,316,819909.36574225,0.002105712890625,-0.0255126953125,-0.998870849609375,819909.3644992501,0.002206695266067982,-0.002811765531077981,-0.002568352501839399,819909.36285225,267.6329040527344,-112.3457183837891,-153.3161315917969
2024-10-16 21:13:16.029 +0200,317,819909.3756912501,0.0023040771484375,-0.026519775390625,-0.9993438720703125,819909.37444825,0.0005531385540962219,-0.002806971780955791,-0.000300404557492584,819909.37312925,267.6675415039062,-112.1817474365234,-153.2672729492188
2024-10-16 21:13:16.039 +0200,318,819909.3856402501,0.001739501953125,-0.025115966796875,-0.9980926513671875,819909.37444825,0.0005531385540962219,-0.002806971780955791,-0.000300404557492584,819909.38340725,267.7297973632812,-112.271484375,-153.4615631103516
2024-10-16 21:13:16.057 +0200,319,819909.39558925,0.0027313232421875,-0.0243682861328125,-0.9982452392578125,819909.3943462501,0.002640524180606008,0.0001781654718797654,-0.00154836184810847,819909.3936862501,267.6488952636719,-112.3436431884766,-153.3165740966797
2024-10-16 21:13:16.059 +0200,320,819909.40553825,0.00347900390625,-0.0245513916015625,-0.99969482421875,819909.4042952501,-0.000669252360239625,-0.004419782198965549,-0.002365685999393463,819909.40396425,267.7650756835938,-112.1044311523438,-153.5108184814453
2024-10-16 21:13:16.069 +0200,321,819909.4154872501,0.0022430419921875,-0.023712158203125,-1.000564575195312,819909.41424425,0.001907888567075133,-0.001125984475947917,-0.001958488719537854,819909.41424125,267.8599853515625,-112.1686248779297,-153.2547607421875
2024-10-16 21:13:16.079 +0200,322,819909.4254362501,0.0028839111328125,-0.0232086181640625,-1.000137329101562,819909.42419325,0.001461276435293257,-0.003634149674326181,-0.001251419424079359,819909.4245202501,267.8344116210938,-112.2560729980469,-153.3976593017578
2024-10-16 21:13:16.089 +0200,323,819909.43538525,0.0002593994140625,-0.02191162109375,-0.9991912841796875,819909.4341422501,0.001126250834204257,-0.003081011120229959,-0.002296710154041648,819909.4347982501,267.7886962890625,-112.2923431396484,-153.3820037841797
2024-10-16 21:13:16.099 +0200,324,819909.4453342501,0.002685546875,-0.0224609375,-0.9990386962890625,819909.4440912501,0.0001315601548412815,-0.001187503570690751,-0.001918541267514229,819909.44507525,267.8456420898438,-112.2262573242188,-153.2990264892578
2024-10-16 21:13:16.118 +0200,325,819909.4552832501,0.0021820068359375,-0.0224609375,-0.9976654052734375,819909.45404025,0.00335718085989356,-0.004878112114965916,-0.004320712294429541,819909.45535325,267.49169921875,-112.3677673339844,-153.2118682861328
2024-10-16 21:13:16.119 +0200,326,819909.46523225,0.002838134765625,-0.0235443115234375,-0.9990692138671875,819909.46398925,-0.0004375573771540076,-0.001204015105031431,-0.0002540655550546944,819909.4656302501,267.79345703125,-112.2247161865234,-153.2744293212891
2024-10-16 21:13:16.129 +0200,327,819909.47518125,0.0009002685546875,-0.0248260498046875,-1.0006103515625,819909.4739382501,-0.001336640561930835,-0.00321843009442091,-0.002197374124079943,819909.4759092501,267.7257690429688,-112.2987823486328,-153.2667541503906
2024-10-16 21:13:16.139 +0200,328,819909.4851302501,0.00048828125,-0.02569580078125,-1.000534057617188,819909.4838872501,0.002053030766546726,-0.003314303932711482,-0.0004412857815623283,819909.48618825,267.74462890625,-112.1650085449219,-153.1762237548828
2024-10-16 21:13:16.149 +0200,329,819909.4950792501,0.0013427734375,-0.0255889892578125,-0.9993896484375,819909.49383625,-0.0001824265345931053,-0.00216142158024013,-0.001297225710004568,819909.49646625,267.837646484375,-112.1634521484375,-153.5931701660156
2024-10-16 21:13:16.159 +0200,330,819909.50502825,0.0019989013671875,-0.0252532958984375,-0.999786376953125,819909.50378525,-0.001376321655698121,-0.0001608549355296418,-0.001016794936731458,819909.5067442501,267.9010009765625,-112.2836303710938,-153.4393005371094
2024-10-16 21:13:16.171 +0200,331,819909.51497725,0.001068115234375,-0.0249786376953125,-1.000686645507812,819909.5137342501,-0.0003051982494071126,-0.000877511571161449,-0.00472391489893198,819909.5067442501,267.9010009765625,-112.2836303710938,-153.4393005371094
2024-10-16 21:13:16.184 +0200,332,819909.5249262501,0.00250244140625,-0.0236968994140625,-0.9990081787109375,819909.5236832501,-0.001534247072413564,-0.0003685815026983619,-0.001073520281352103,819909.5170222501,267.6069946289062,-112.3485870361328,-153.3505096435547
2024-10-16 21:13:16.189 +0200,333,819909.5348752501,0.002716064453125,-0.022796630859375,-0.998687744140625,819909.53363225,0.002628806279972196,-0.002297508995980024,-0.00167832407169044,819909.52730025,267.8613891601562,-112.2814025878906,-153.3549346923828
2024-10-16 21:13:16.199 +0200,334,819909.54482325,0.0041046142578125,-0.0216522216796875,-1.00006103515625,819909.54358025,-0.000303334032651037,-0.003596598980948329,0.000109722233901266,819909.5375792501,267.9177856445312,-112.1619262695312,-153.2610626220703
2024-10-16 21:13:16.208 +0200,335,819909.55477225,0.0022735595703125,-0.022918701171875,-0.9993133544921875,819909.5535292501,0.0002380866062594578,-0.003185407025739551,-0.002449042862281203,819909.5478572501,267.7570190429688,-112.3054504394531,-153.2622680664062
2024-10-16 21:13:16.218 +0200,336,819909.5647212501,0.00164794921875,-0.0233612060546875,-0.99920654296875,819909.5634782501,0.004841360729187727,-0.001747300033457577,-0.0009001484140753746,819909.55813525,267.8873901367188,-112.2931213378906,-153.2996063232422
2024-10-16 21:13:16.236 +0200,337,819909.5746702501,0.00225830078125,-0.0234222412109375,-0.9985198974609375,819909.57342725,0.0005579322460107505,-0.002769953804090619,-0.001256213057786226,819909.56841325,267.6988830566406,-112.3864288330078,-153.1675262451172
2024-10-16 21:13:16.238 +0200,338,819909.58461925,0.0013275146484375,-0.024078369140625,-0.99798583984375,819909.58337625,0.0009238505735993385,-0.001228249864652753,-0.0005099953268654644,819909.5786912501,267.7572021484375,-112.3014526367188,-153.2260131835938
2024-10-16 21:13:16.248 +0200,339,819909.59456825,0.0013275146484375,-0.025360107421875,-0.9965972900390625,819909.5933252501,-0.001457548001781106,-0.001989647746086121,0.001491902861744165,819909.5889692501,267.5351867675781,-112.3069915771484,-153.1475067138672
2024-10-16 21:13:16.258 +0200,340,819909.6045172501,0.0018768310546875,-0.0252685546875,-1.00238037109375,819909.6032742501,0.003158509032800794,-0.002041579224169254,-0.0009824400767683983,819909.59924625,267.5509643554688,-112.1901092529297,-153.1817474365234
2024-10-16 21:13:16.268 +0200,341,819909.6144662501,0.0014190673828125,-0.0233154296875,-0.995635986328125,819909.61322325,-0.001604288234375417,-0.001555019756779075,-0.001817341079004109,819909.60952325,267.75927734375,-112.2863464355469,-153.2135467529297
2024-10-16 21:13:16.278 +0200,342,819909.62441525,0.0034027099609375,-0.025604248046875,-0.998992919921875,819909.62317225,0.0005984122981317341,-0.003854126669466496,-0.003313505090773106,819909.61980025,267.6563415527344,-112.2283172607422,-153.3702239990234
2024-10-16 21:13:16.291 +0200,343,819909.63436425,0.0032501220703125,-0.0254974365234375,-1.00140380859375,819909.6331212501,-0.0003067961661145091,-0.00321949552744627,-0.003225354477763176,819909.6300782501,267.78173828125,-112.2310791015625,-153.4675445556641
2024-10-16 21:13:16.299 +0200,344,819909.6443132501,0.00189208984375,-0.0240631103515625,-0.998809814453125,819909.6430702501,0.001944107585586607,-0.001313204760663211,-0.001054079155437648,819909.6403562501,267.759033203125,-112.0839691162109,-153.5971832275391
2024-10-16 21:13:16.308 +0200,345,819909.6542622501,0.0013580322265625,-0.0232086181640625,-0.9989776611328125,819909.65301925,0.0009864348685368896,-0.002035986632108688,-0.002237587934359908,819909.65063325,268.0154724121094,-112.1014709472656,-153.4788055419922
2024-10-16 21:13:16.318 +0200,346,819909.66421125,0.0018310546875,-0.0241851806640625,-1.000350952148438,819909.66296825,0.0003382214636076242,-0.001836515846662223,-0.001210406655445695,819909.66091025,267.8442993164062,-112.1598815917969,-153.5543212890625
2024-10-16 21:13:16.328 +0200,347,819909.67416025,0.0020751953125,-0.023040771484375,-1.0003662109375,819909.6729172501,1.038632854033494e-05,-0.003335076617076993,-0.002567820018157363,819909.6711872501,267.8689270019531,-112.0827941894531,-153.3731384277344
2024-10-16 21:13:16.338 +0200,348,819909.6841092501,0.0023651123046875,-0.023040771484375,-0.999603271484375,819909.68286625,0.001706553623080254,-0.002334260614588857,-0.0002271676348755136,819909.6814652501,267.58251953125,-112.339599609375,-153.4483642578125
2024-10-16 21:13:16.348 +0200,349,819909.6940582501,0.0013275146484375,-0.0238494873046875,-0.998077392578125,819909.69281525,0.003473028307780623,-0.002888730727136135,-0.002557433675974607,819909.69174325,267.7628173828125,-112.1251373291016,-153.1599731445312
2024-10-16 21:13:16.358 +0200,350,819909.70400725,0.000244140625,-0.024871826171875,-1.000747680664062,819909.7027642501,0.002646649489179254,-0.005515406373888254,0.0004814995336346328,819909.70202125,267.7186279296875,-112.1911315917969,-153.1779632568359
2024-10-16 21:13:16.368 +0200,351,819909.71395625,0.002410888671875,-0.024261474609375,-1.001129150390625,819909.7127132501,0.0003826962492894381,-0.002253034152090549,-0.0008130630594678223,819909.7123012501,267.7608947753906,-112.3616180419922,-153.3766021728516
2024-10-16 21:13:16.378 +0200,352,819909.7239052501,0.00103759765625,-0.0254058837890625,-0.99761962890625,819909.72266225,0.002123072044923902,-0.003086870070546865,-0.000782436749432236,819909.72258025,267.7219848632812,-112.35888671875,-153.4431457519531
2024-10-16 21:13:16.388 +0200,353,819909.7338542501,0.0020599365234375,-0.026214599609375,-0.9969482421875,819909.73261125,-0.001327852136455476,-5.166532355360687e-05,-0.002537992550060153,819909.73285825,267.7470703125,-112.2290496826172,-153.2306060791016
2024-10-16 21:13:16.397 +0200,354,819909.74380225,0.0008697509765625,-0.02569580078125,-1.001708984375,819909.7425592501,0.003138535423204303,-0.002722549485042691,-0.001437041675671935,819909.7431362501,267.9365539550781,-112.1638488769531,-153.2867889404297
2024-10-16 21:13:16.407 +0200,355,819909.7537512501,0.0023193359375,-0.025177001953125,-0.9978179931640625,819909.7525082501,0.000556334329303354,-0.003418699838221073,-9.827064059209079e-05,819909.7534142501,267.8282775878906,-112.1267852783203,-153.2255706787109
2024-10-16 21:13:16.417 +0200,356,819909.7637002501,0.001617431640625,-0.0249176025390625,-0.99761962890625,819909.76245725,0.001787513727322221,-0.0002761697978712618,-0.0001454086013836786,819909.76369125,267.7272338867188,-112.2972412109375,-153.4694213867188
2024-10-16 21:13:16.427 +0200,357,819909.7736482917,0.002593994140625,-0.02374267578125,-0.9989776611328125,819909.7724052917,-0.0003869573120027781,-0.002882339293137193,7.0307454734575e-05,819909.7739692917,267.7718505859375,-112.2431335449219,-153.4400787353516
2024-10-16 21:13:16.437 +0200,358,819909.7835972917,0.0023956298828125,-0.0230560302734375,-0.999542236328125,819909.7823542918,0.0006492786924354732,-3.302319601061754e-05,-0.0008873652550391853,819909.7842482917,267.6915893554688,-112.2338562011719,-153.2096099853516
2024-10-16 21:13:16.447 +0200,359,819909.7935462918,0.001556396484375,-0.02239990234375,-0.998779296875,819909.7923032917,0.001063133939169347,-0.0010072075529024,-0.0004316983977332711,819909.7945262917,267.6589660644531,-112.2142181396484,-153.4332885742188
2024-10-16 21:13:16.457 +0200,360,819909.8034952917,0.0030059814453125,-0.0224456787109375,-0.9987945556640625,819909.8022522917,0.0002801645314320922,-0.001373125822283328,-0.003176085883751512,819909.8048042917,267.6776123046875,-112.1114044189453,-153.2995910644531
2024-10-16 21:13:16.467 +0200,361,819909.8134442917,0.003448486328125,-0.02392578125,-1.000152587890625,819909.8122012917,0.00155262288171798,-0.003587011713534594,0.001328651094809175,819909.8150822917,267.4951477050781,-112.2284240722656,-153.1985473632812
2024-10-16 21:13:16.484 +0200,362,819909.8233932917,0.0005035400390625,-0.0246124267578125,-0.9988861083984375,819909.8221502918,0.002013349672779441,-0.001544899772852659,-0.0007062703371047974,819909.8253602918,267.759765625,-112.210205078125,-153.4656524658203
2024-10-16 21:13:16.487 +0200,363,819909.8333422918,0.001190185546875,-0.025177001953125,-0.997772216796875,819909.8320992917,0.0007989483419805765,-0.0006599313346669078,-0.0009158611064776778,819909.8253602918,267.759765625,-112.210205078125,-153.4656524658203
2024-10-16 21:13:16.497 +0200,364,819909.8432912917,0.0030517578125,-0.025146484375,-0.999847412109375,819909.8420482917,0.001780056860297918,-0.003621899057179689,-0.001331846811808646,819909.8356402917,267.7833862304688,-112.2797546386719,-153.2084197998047
2024-10-16 21:13:16.507 +0200,365,819909.8532402917,0.0019989013671875,-0.0261688232421875,-0.999969482421875,819909.8519972917,0.001789644244126976,-0.001863946439698339,-0.001650360878556967,819909.8459182917,267.5673828125,-112.3246917724609,-153.2584228515625
2024-10-16 21:13:16.517 +0200,366,819909.8631892917,0.0009307861328125,-0.0268402099609375,-0.998443603515625,819909.8619462918,-0.0008093346259556711,-0.00424374733120203,-0.00446798512712121,819909.8561952917,267.634765625,-112.3664398193359,-153.1743011474609
2024-10-16 21:13:16.527 +0200,367,819909.8731382918,0.0030364990234375,-0.02447509765625,-1.000213623046875,819909.8718952917,0.001086835982277989,-0.002133990870788693,-0.002633333671838045,819909.8664792917,267.7621154785156,-112.2537994384766,-153.3297729492188
2024-10-16 21:13:16.537 +0200,368,819909.8830872917,0.0031890869140625,-0.023834228515625,-1.000289916992188,819909.8718952917,0.001086835982277989,-0.002133990870788693,-0.002633333671838045,819909.8767492917,267.6585083007812,-112.3173217773438,-153.2892913818359
2024-10-16 21:13:16.547 +0200,369,819909.8930362917,0.0021820068359375,-0.02496337890625,-0.99755859375,819909.8818442917,0.002012018114328384,-0.003280748147517443,-0.0008580705034546554,819909.8870262917,267.5864562988281,-112.3629913330078,-153.2234191894531
2024-10-16 21:13:16.557 +0200,370,819909.9029852917,0.0021514892578125,-0.0239410400390625,-0.9983673095703125,819909.9017422918,0.002667155815288424,-0.003167563816532493,-0.001000549644231796,819909.8973042917,267.65087890625,-112.2061157226562,-152.9990692138672
2024-10-16 21:13:16.567 +0200,371,819909.9129342918,0.00054931640625,-0.0227508544921875,-1.00030517578125,819909.9116912917,0.0006831008358858526,-0.001733185257762671,-0.001584847108460963,819909.9075882917,267.704833984375,-112.2449645996094,-153.2737579345703
2024-10-16 21:13:16.577 +0200,372,819909.9228832917,0.004608154296875,-0.0231475830078125,-0.999786376953125,819909.9216402917,0.0005936186062172055,-0.0003925499331671745,-0.002091114176437259,819909.9178662917,267.8274536132812,-112.1442413330078,-153.1791534423828
2024-10-16 21:13:16.586 +0200,373,819909.9328312917,0.0011444091796875,-0.0225067138671875,-0.9992218017578125,819909.9315882918,0.001562210265547037,-0.001584048150107265,-0.0006125270738266408,819909.9281382917,267.73828125,-112.0575561523438,-153.1452941894531
2024-10-16 21:13:16.600 +0200,374,819909.9427802917,0.002471923828125,-0.0237884521484375,-0.998382568359375,819909.9415372917,-6.977481825742871e-05,-0.0002822950773406774,-0.0005803027888759971,819909.9384162917,267.5484008789062,-112.3176574707031,-153.0201873779297
2024-10-16 21:13:16.606 +0200,375,819909.9527292917,0.0025787353515625,-0.024810791015625,-0.9996337890625,819909.9514862917,0.0001866875973064452,-0.002834934974089265,0.0004101268132217228,819909.9486922917,267.7187194824219,-112.2855834960938,-153.1137237548828
2024-10-16 21:13:16.616 +0200,376,819909.9626782917,0.0015106201171875,-0.0250396728515625,-0.99884033203125,819909.9614352917,0.0006820355774834752,-0.005075718741863966,-0.001201085629872978,819909.9589702918,267.8271179199219,-112.1790161132812,-153.1171417236328
2024-10-16 21:13:16.626 +0200,377,819909.9726272917,0.001617431640625,-0.025177001953125,-0.9987640380859375,819909.9713842918,0.003745736088603735,-0.005055212415754795,-0.0002122539444826543,819909.9692472917,267.7894897460938,-112.1410369873047,-153.0433807373047
2024-10-16 21:13:16.636 +0200,378,819909.9825762917,0.00018310546875,-0.025238037109375,-1.000244140625,819909.9813332917,0.001672198879532516,-0.002905242377892137,-0.0002772350562736392,819909.9795242917,267.6749267578125,-112.1800689697266,-153.1299591064453
2024-10-16 21:13:16.646 +0200,379,819909.9925252917,0.0018768310546875,-0.0247344970703125,-0.9998931884765625,819909.9912822917,0.000287088769255206,-0.00315984059125185,-0.001728391507640481,819909.9898012917,267.6709594726562,-112.1774597167969,-153.2399291992188
2024-10-16 21:13:16.657 +0200,380,819910.0024742917,0.0023193359375,-0.0237884521484375,-0.9985809326171875,819910.0012312917,0.0002628540096338838,-0.004666923545300961,-0.0006823018775321543,819910.0000792918,267.7785339355469,-112.2152862548828,-153.0724945068359
2024-10-16 21:13:16.666 +0200,381,819910.0124232917,0.001861572265625,-0.02325439453125,-0.9989013671875,819910.0111802918,0.00466532539576292,-0.002402437618002295,-0.0004396878939587623,819910.0103562917,267.7572021484375,-112.2351989746094,-153.1919403076172
2024-10-16 21:13:16.676 +0200,382,819910.0223722918,0.0025634765625,-0.0214385986328125,-0.9995574951171875,819910.0211292917,0.002102832077071071,-0.002222940558567643,-0.003042395226657391,819910.0206332917,267.8550415039062,-112.1347808837891,-153.2466583251953
2024-10-16 21:13:16.686 +0200,383,819910.0323212917,0.001800537109375,-0.0229034423828125,-0.9998016357421875,819910.0310782917,-0.0002711098059080541,-0.002335592173039913,-4.234426160110161e-05,819910.0309112917,267.8260498046875,-112.1602325439453,-153.319091796875
2024-10-16 21:13:16.696 +0200,384,819910.0422702917,0.001861572265625,-0.02203369140625,-0.9994964599609375,819910.0410272917,6.471481174230576e-05,-0.0006756439688615501,-0.002285258611664176,819910.0411892917,267.5762329101562,-112.298828125,-153.1264953613281
2024-10-16 21:13:16.706 +0200,385,819910.0522192917,0.00384521484375,-0.0229644775390625,-0.9989013671875,819910.0509762918,0.0008884305134415627,8.788431296125054e-05,-0.0001736380945658311,819910.0514682917,267.6616821289062,-112.1177368164062,-153.1357727050781
2024-10-16 21:13:16.718 +0200,386,819910.0621682918,0.0040130615234375,-0.02423095703125,-0.9991455078125,819910.0609252917,-0.001571797649376094,-0.001429318566806614,-0.001567802974022925,819910.0617462917,267.5191650390625,-112.2679290771484,-153.1947784423828
2024-10-16 21:13:16.726 +0200,387,819910.0721172917,0.0032958984375,-0.02496337890625,-0.99853515625,819910.0708742917,0.001560346106998622,-0.001522262813523412,0.0008812400046736002,819910.0720242917,267.6161499023438,-112.2451782226562,-152.9521331787109
2024-10-16 21:13:16.736 +0200,388,819910.0820662917,0.001922607421875,-0.024078369140625,-0.9993743896484375,819910.0808232917,-0.001198955113068223,0.0001816275907913223,-0.003072488820180297,819910.0823032918,267.6781616210938,-112.3611145019531,-153.2506713867188
2024-10-16 21:13:16.746 +0200,389,819910.0920152917,0.002532958984375,-0.023956298828125,-1.0010986328125,819910.0907722918,-0.0008721852791495621,-0.001911350642330945,-0.002290584845468402,819910.0925802917,267.5108642578125,-112.3536834716797,-153.2275085449219
2024-10-16 21:13:16.756 +0200,390,819910.1019642918,0.0013885498046875,-0.026214599609375,-1.000167846679688,819910.1007212917,0.002928145695477724,-0.004126834217458963,0.001097222324460745,819910.1028592917,267.6489868164062,-112.2150573730469,-153.3590850830078
2024-10-16 21:13:16.766 +0200,391,819910.1119122917,0.0020599365234375,-0.027069091796875,-0.9993438720703125,819910.1106692917,-0.0001701759902061895,-0.001806954736821353,-0.000993625377304852,819910.1131382918,267.6900024414062,-112.3110504150391,-153.2520446777344
2024-10-16 21:13:16.776 +0200,392,819910.1218612917,0.0017547607421875,-0.025848388671875,-0.9996795654296875,819910.1206182917,0.0002300971100339666,-0.002144909929484129,-0.002116680378094316,819910.1234162917,267.6185302734375,-112.3432159423828,-153.2154083251953
2024-10-16 21:13:16.786 +0200,393,819910.1318102917,0.00225830078125,-0.0241546630859375,-0.99859619140625,819910.1305672918,0.0008639294537715614,-0.004054130055010319,-0.0006894923863001168,819910.1336952917,267.6879272460938,-112.1804046630859,-153.2216796875
2024-10-16 21:13:16.796 +0200,394,819910.1417592918,0.0012054443359375,-0.024139404296875,-0.9997711181640625,819910.1405162917,0.003059705719351768,-0.001640507252886891,-0.0007952199084684253,819910.1336952917,267.6879272460938,-112.1804046630859,-153.2216796875
2024-10-16 21:13:16.806 +0200,395,819910.1517082917,-0.0001678466796875,-0.0220794677734375,-0.9987640380859375,819910.1504652917,0.0003017361450474709,-0.002556101884692907,-0.0008751147543080151,819910.1439722917,267.5370483398438,-112.2430267333984,-153.1955108642578
2024-10-16 21:13:16.816 +0200,396,819910.1616572917,0.0023193359375,-0.0219879150390625,-1.000885009765625,819910.1604142917,0.003244795370846987,-0.003584348596632481,-0.0009781790431588888,819910.1542502918,267.6807250976562,-112.1728973388672,-153.1861114501953
2024-10-16 21:13:16.825 +0200,397,819910.1716062917,0.0036163330078125,-0.0233306884765625,-0.99981689453125,819910.1703632917,0.002573678968474269,-0.00256009679287672,-2.396845047769602e-06,819910.1645342917,267.55419921875,-112.2763977050781,-153.1877593994141
2024-10-16 21:13:16.838 +0200,398,819910.1815552918,0.0012054443359375,-0.023681640625,-0.99774169921875,819910.1803122917,0.001362206880003214,-0.001843972713686526,-0.001185639295727015,819910.1748052917,267.6575317382812,-112.1419525146484,-153.3134918212891
2024-10-16 21:13:16.845 +0200,399,819910.1915042917,0.0018768310546875,-0.0247650146484375,-0.9980316162109375,819910.1902612917,0.0007840346079319715,-0.001855690614320338,-0.001271126791834831,819910.1850822917,267.6632385253906,-112.3574676513672,-153.2481231689453
2024-10-16 21:13:16.855 +0200,400,819910.2014532917,0.0026702880859375,-0.025299072265625,-0.9992218017578125,819910.2002102917,0.0007946872501634061,-0.002408562926575541,-0.002280198503285646,819910.1953602917,267.5335998535156,-112.4343566894531,-153.2893829345703
2024-10-16 21:13:16.865 +0200,401,819910.2114022917,0.0036163330078125,-0.0246124267578125,-1.000228881835938,819910.2101592917,0.0003733751946128905,-0.002058090874925256,-0.00108284130692482,819910.2056392917,267.7779235839844,-112.2853698730469,-153.1934051513672
2024-10-16 21:13:16.875 +0200,402,819910.2213512918,0.00341796875,-0.024993896484375,-1.000717163085938,819910.2201082917,0.001983522437512875,0.0005073322099633515,-0.001672731479629874,819910.2159162917,267.5242614746094,-112.2316436767578,-153.3149871826172
2024-10-16 21:13:16.885 +0200,403,819910.2313002917,0.002044677734375,-0.0252532958984375,-0.9997711181640625,819910.2300572917,0.00225436594337225,-0.004164118785411119,-0.001243163598701358,819910.2261952917,267.7171020507812,-112.1835327148438,-153.3216705322266
2024-10-16 21:13:16.900 +0200,404,819910.2412492917,0.0001678466796875,-0.02423095703125,-0.99884033203125,819910.2400062918,0.0006775081856176257,-0.001776594785042107,-0.001584314508363605,819910.2364732918,267.688720703125,-112.1658172607422,-153.0794830322266
2024-10-16 21:13:16.905 +0200,405,819910.2511982917,0.0008392333984375,-0.026702880859375,-0.9991912841796875,819910.2499552917,0.000220776055357419,0.0001272990921279415,-0.002576608443632722,819910.2467512917,267.4965209960938,-112.2514190673828,-153.1913604736328
2024-10-16 21:13:16.915 +0200,406,819910.2611472917,0.00189208984375,-0.0245513916015625,-0.998748779296875,819910.2599042917,0.003550526453182101,-0.002496979897841811,-0.004543352872133255,819910.2570292917,267.567138671875,-112.2973785400391,-153.3401641845703
2024-10-16 21:13:16.925 +0200,407,819910.2710962917,0.003448486328125,-0.0240478515625,-0.999114990234375,819910.2698532917,0.001407480682246387,-0.002284459536895156,-0.0003888215287588537,819910.2673082917,267.5678100585938,-112.3593139648438,-153.3715209960938
2024-10-16 21:13:16.935 +0200,408,819910.2810452917,0.0018157958984375,-0.02276611328125,-0.9990692138671875,819910.2798022918,0.002395513467490673,-0.0008942894637584686,0.001550226006656885,819910.2775872917,267.4154052734375,-112.4063110351562,-153.2700042724609
2024-10-16 21:13:16.945 +0200,409,819910.2909942917,0.0024566650390625,-0.0234527587890625,-1.000091552734375,819910.2897512917,0.0007182545377872884,-0.005849899724125862,-0.003379551460966468,819910.2878652917,267.5118408203125,-112.3141479492188,-153.1454772949219
2024-10-16 21:13:16.957 +0200,410,819910.3009432917,0.0009613037109375,-0.024749755859375,-1.001327514648438,819910.2997002917,0.001343032112345099,-0.004083424806594849,-0.001959820277988911,819910.2981422917,267.3719482421875,-112.3075256347656,-153.0511322021484
2024-10-16 21:13:16.965 +0200,411,819910.3108912917,0.0029296875,-0.02459716796875,-1.00006103515625,819910.3096482917,0.001249821507371962,0.001290301559492946,-0.0008450209861621261,819910.3084212918,267.5169677734375,-112.2960968017578,-153.277099609375
2024-10-16 21:13:16.975 +0200,412,819910.3208402917,0.0027923583984375,-0.02447509765625,-1.000137329101562,819910.3195972918,-0.0004713795206043869,-0.003362240735441446,-0.001031708554364741,819910.3186982917,267.5189819335938,-112.3048248291016,-153.3139190673828
2024-10-16 21:13:16.985 +0200,413,819910.3307892918,0.0026397705078125,-0.0248870849609375,-1.000152587890625,819910.3295462917,0.002616822021082044,-0.002755306428298354,-0.001563275582157075,819910.3289762917,267.5926208496094,-112.4291687011719,-153.0903930664062
2024-10-16 21:13:16.995 +0200,414,819910.3407382917,0.0043487548828125,-0.0249786376953125,-0.9997406005859375,819910.3394952917,0.002558232517912984,-0.003338272450491786,-0.0001587244041729718,819910.3392532917,267.5401611328125,-112.3204040527344,-153.1315765380859
2024-10-16 21:13:17.004 +0200,415,819910.3506872917,0.002960205078125,-0.0251922607421875,-0.9997406005859375,819910.3494442917,0.002723614918068051,-0.001570998691022396,-0.002103630919009447,819910.3495312918,267.6331787109375,-112.282470703125,-152.9566650390625
2024-10-16 21:13:17.018 +0200,416,819910.3606362917,0.0022430419921875,-0.0265045166015625,-0.9997711181640625,819910.3593932918,-0.0001230380439665169,0.0001957423373823985,0.0003278351214248687,819910.3598092917,267.4141235351562,-112.5027465820312,-153.3123779296875
2024-10-16 21:13:17.024 +0200,417,819910.3705852918,0.0048675537109375,-0.024627685546875,-0.99945068359375,819910.3693422917,0.001408279524184763,-0.001437840634025633,-0.001042361254803836,819910.3700872917,267.4918823242188,-112.3941192626953,-153.1721649169922
2024-10-16 21:13:17.034 +0200,418,819910.3805342917,0.0023193359375,-0.023773193359375,-0.9996490478515625,819910.3792912917,0.0006950850365683436,-0.003288471372798085,0.001430916483514011,819910.3803642917,267.437744140625,-112.3782806396484,-153.3255767822266
2024-10-16 21:13:17.044 +0200,419,819910.3904832917,0.00140380859375,-0.0238037109375,-0.998748779296875,819910.3892402917,0.0008993495139293373,-0.00104076333809644,-0.002408296568319201,819910.3906422917,267.5845336914062,-112.17431640625,-153.0610809326172
2024-10-16 21:13:17.054 +0200,420,819910.4004322917,0.002716064453125,-0.0236663818359375,-0.99920654296875,819910.3991892918,0.001795769552700222,-0.0005635248962789774,0.0003960120375268161,819910.4009202917,267.7117614746094,-112.3012390136719,-153.2874755859375
2024-10-16 21:13:17.064 +0200,421,819910.4103812918,0.001922607421875,-0.0227813720703125,-0.999176025390625,819910.3991892918,0.001795769552700222,-0.0005635248962789774,0.0003960120375268161,819910.4111982917,267.6406860351562,-112.16552734375,-153.1149597167969
2024-10-16 21:13:17.074 +0200,422,819910.4203302917,0.001983642578125,-0.024658203125,-1.000030517578125,819910.4190872917,0.0004764395125675946,-0.002413090318441391,-0.001423459616489708,819910.4214762917,267.5721740722656,-112.3870391845703,-153.3025207519531
2024-10-16 21:13:17.084 +0200,423,819910.4302792917,0.001953125,-0.02447509765625,-0.999359130859375,819910.4290362917,0.001487109111621976,-0.004192348103970289,-0.0008335694437846541,819910.4317552918,267.5664672851562,-112.2253112792969,-153.2120056152344
2024-10-16 21:13:17.094 +0200,424,819910.4402282917,0.0029754638671875,-0.0246429443359375,-0.998992919921875,819910.4389852918,0.001509479712694883,-0.003411242971196771,-0.002733734901994467,819910.4420352917,267.719482421875,-112.15966796875,-153.3970184326172
2024-10-16 21:13:17.104 +0200,425,819910.4501772918,0.00225830078125,-0.0245208740234375,-0.9999237060546875,819910.4489342917,0.001383778522722423,-0.002665557898581028,-0.002414688235148787,819910.4420352917,267.719482421875,-112.15966796875,-153.3970184326172
2024-10-16 21:13:17.114 +0200,426,819910.4601262917,0.00213623046875,-0.024932861328125,-1.000518798828125,819910.4588832917,0.001654355670325458,-0.003031742526218295,-0.001462874352000654,819910.4523132917,267.7039184570312,-112.1208343505859,-153.1515045166016
2024-10-16 21:13:17.124 +0200,427,819910.4700752917,0.0025482177734375,-0.02581787109375,-0.999786376953125,819910.4588832917,0.001654355670325458,-0.003031742526218295,-0.001462874352000654,819910.4625902917,267.5127563476562,-112.3406677246094,-153.2017059326172
2024-10-16 21:13:17.138 +0200,428,819910.4800242917,0.0013427734375,-0.0244293212890625,-0.9991912841796875,819910.4787812917,0.0001925465476233512,-0.003013366833329201,-0.001357679488137364,819910.4728742917,267.5172119140625,-112.2737884521484,-153.4302520751953
2024-10-16 21:13:17.144 +0200,429,819910.4899732918,0.0029144287109375,-0.0249176025390625,-0.9984588623046875,819910.4887302917,0.0002607234637252986,-0.003200586885213852,0.0009201221400871873,819910.4831462917,267.6466979980469,-112.092041015625,-153.2810516357422
2024-10-16 21:13:17.154 +0200,430,819910.4999212917,0.0025482177734375,-0.025146484375,-0.9998016357421875,819910.4986782917,-0.0003073287953156978,-0.003638144349679351,-0.00221947836689651,819910.4934232917,267.6734313964844,-112.4017944335938,-153.3865966796875
2024-10-16 21:13:17.164 +0200,431,819910.5098702917,0.0025634765625,-0.0243072509765625,-0.9995269775390625,819910.5086272918,0.0006412891671061516,-0.003722300287336111,-0.0005723133217543364,819910.5037012917,267.8169860839844,-112.1965179443359,-153.3893890380859
2024-10-16 21:13:17.174 +0200,432,819910.5198192918,0.0029296875,-0.0228271484375,-0.9979248046875,819910.5185762917,0.0009041432058438659,-0.001450623851269484,-0.001613076659850776,819910.5139792917,267.6153564453125,-112.2487335205078,-152.9580535888672
2024-10-16 21:13:17.183 +0200,433,819910.5297682917,0.0019378662109375,-0.0217742919921875,-0.9994659423828125,819910.5285252917,-0.0002652508555911481,-0.001285241567529738,-8.548746700398624e-05,819910.5242572917,267.6705932617188,-112.2458801269531,-153.1348266601562
2024-10-16 21:13:17.200 +0200,434,819910.5397172917,0.0016937255859375,-0.0221710205078125,-1.00030517578125,819910.5384742917,0.0005054679932072759,-0.00252973660826683,-0.001184840337373316,819910.5345402918,267.53173828125,-112.3166809082031,-153.2527618408203
2024-10-16 21:13:17.203 +0200,435,819910.5496662917,0.001007080078125,-0.0240936279296875,-0.998626708984375,819910.5484232918,0.001113467616960406,-0.001325455261394382,-0.001940645510330796,819910.5448102917,267.6046752929688,-112.2063903808594,-153.2007446289062
2024-10-16 21:13:17.213 +0200,436,819910.5596152918,0.00140380859375,-0.02227783203125,-0.9989776611328125,819910.5583722917,0.0008378304773941636,-0.003601126372814178,-0.001815476920455694,819910.5550882918,267.6800842285156,-112.2609405517578,-153.1049194335938
2024-10-16 21:13:17.223 +0200,437,819910.5695642917,-0.000732421875,-0.02508544921875,-0.99920654296875,819910.5683212917,0.003323891432955861,-0.004319647327065468,-0.003650128608569503,819910.5653652917,267.3954467773438,-112.2777099609375,-153.1422882080078
2024-10-16 21:13:17.233 +0200,438,819910.5795132917,0.00189208984375,-0.0251617431640625,-0.9991455078125,819910.5782702917,0.004799282643944025,-0.002715891692787409,-0.002638659905642271,819910.5756422917,267.5487670898438,-112.4704895019531,-153.2865753173828
2024-10-16 21:13:17.243 +0200,439,819910.5894622917,0.0030364990234375,-0.0254058837890625,-0.998504638671875,819910.5882192918,-5.219795639277436e-05,-0.0009384979493916035,-0.003334810258820653,819910.5859202917,267.4569091796875,-112.4167633056641,-153.1596069335938
2024-10-16 21:13:17.256 +0200,440,819910.5994112918,0.0030975341796875,-0.0254669189453125,-0.999053955078125,819910.5981682917,0.001937982277013361,-0.00241708499379456,-0.0003648530691862106,819910.5961982918,267.4595642089844,-112.2902679443359,-153.3379821777344
2024-10-16 21:13:17.263 +0200,441,819910.6093602917,0.0025787353515625,-0.0251617431640625,-0.9991455078125,819910.6081172917,0.002824548631906509,-0.0008862999966368079,-0.001275121467188001,819910.6064762917,267.5094604492188,-112.2459106445312,-153.0345916748047
2024-10-16 21:13:17.273 +0200,442,819910.6193092917,0.00146484375,-0.0235595703125,-0.994964599609375,819910.6180662917,0.001401089015416801,-0.002296177437528968,-0.0008245146600529552,819910.6167542917,267.7545776367188,-112.2771911621094,-153.3950500488281
2024-10-16 21:13:17.283 +0200,443,819910.6292582917,0.00164794921875,-0.02392578125,-1.006790161132812,819910.6280152918,0.0008245146600529552,-0.005455219186842442,0.000499875342939049,819910.6270332917,267.5496215820312,-112.3228454589844,-153.5126342773438
2024-10-16 21:13:17.293 +0200,444,819910.6392072918,0.001953125,-0.0238800048828125,-0.9971771240234375,819910.6379642917,0.0005360943032428622,-0.002316151279956102,-0.001748631591908634,819910.6373102918,267.60498046875,-112.3349304199219,-153.250732421875
2024-10-16 21:13:17.303 +0200,445,819910.6491562917,0.0015106201171875,-0.0234527587890625,-0.995025634765625,819910.6479132917,0.001836782204918563,-0.00105807394720614,0.0004471447318792343,819910.6475882917,267.4261169433594,-112.2586059570312,-153.4261474609375
2024-10-16 21:13:17.317 +0200,446,819910.6591052917,0.0018768310546875,-0.02294921875,-1.00103759765625,819910.6578622917,0.001686846255324781,-0.001720934640616179,-0.003645334858447313,819910.6578672917,267.4214477539062,-112.3843383789062,-153.2037353515625
2024-10-16 21:13:17.323 +0200,447,819910.6690542917,0.0018768310546875,-0.023406982421875,-1.002731323242188,819910.6678112918,0.00218991725705564,-0.001929992809891701,9.58738019107841e-05,819910.6681452917,267.3772277832031,-112.4166107177734,-153.2422485351562
2024-10-16 21:13:17.333 +0200,448,819910.6790022918,0.0027618408203125,-0.0226287841796875,-0.997467041015625,819910.6777592917,-0.0002426139690214768,-0.002265551127493382,-0.001483114436268806,819910.6784232918,267.6549072265625,-112.1842651367188,-153.4595031738281
2024-10-16 21:13:17.343 +0200,449,819910.6889512917,0.00262451171875,-0.02410888671875,-0.996612548828125,819910.6877082917,0.002180063631385565,-0.002585130510851741,-0.003316434565931559,819910.6887012917,267.6242980957031,-112.2460632324219,-153.3389739990234
2024-10-16 21:13:17.353 +0200,450,819910.6989002917,0.00244140625,-0.02435302734375,-0.9997100830078125,819910.6976572917,0.002222407842054963,-0.001550226006656885,-0.001120125525631011,819910.6989802917,267.4805297851562,-112.3316802978516,-153.2954711914062
2024-10-16 21:13:17.363 +0200,451,819910.7088492917,0.002532958984375,-0.024810791015625,-1.001312255859375,819910.7076062917,-0.0003683151735458523,9.028115891851485e-05,-0.00247966917231679,819910.7092582918,267.7248840332031,-112.2537231445312,-153.3818359375
2024-10-16 21:13:17.372 +0200,452,819910.7187982918,0.0031890869140625,-0.02557373046875,-0.996429443359375,819910.7175552917,0.001374990097247064,-0.001212537288665771,-0.002032524440437555,819910.7195362917,267.6044921875,-112.1913604736328,-153.2704315185547
2024-10-16 21:13:17.383 +0200,453,819910.7287472917,0.00299072265625,-0.0249786376953125,-0.997406005859375,819910.7275042917,0.0009398295660503209,-0.000675111310556531,-0.0003901530872099102,819910.7298142917,267.5615234375,-112.3721160888672,-153.2186889648438
2024-10-16 21:13:17.392 +0200,454,819910.7386962917,0.0037078857421875,-0.0249481201171875,-1.002471923828125,819910.7374532917,0.003070891136303544,-0.003317499766126275,-0.001517735538072884,819910.7400982917,267.4811096191406,-112.2730712890625,-153.1800842285156
2024-10-16 21:13:17.402 +0200,455,819910.7486452917,0.002227783203125,-0.0240020751953125,-0.999267578125,819910.7474022917,0.0005941512063145638,-0.00330737978219986,-0.001926796976476908,819910.7503692918,267.552490234375,-112.1698913574219,-153.1876983642578
2024-10-16 21:13:17.412 +0200,456,819910.7585942918,0.002166748046875,-0.0236968994140625,-0.9953765869140625,819910.7573512917,0.0005797701887786388,-0.00128018157556653,-7.776429993100464e-05,819910.7503692918,267.552490234375,-112.1698913574219,-153.1876983642578
2024-10-16 21:13:17.422 +0200,457,819910.7685433751,0.001434326171875,-0.0228424072265625,-1.002410888671875,819910.767300375,0.0001041295981849544,-0.004353735595941544,0.0004141215467825532,819910.7606472917,267.6994018554688,-112.2049255371094,-153.2374572753906
